# Diamond Light Source
# Instrument: B18-CORE XAS Date: Thu, 28 Jul 2016 01:52:07 BST
# Ring energy:   3.0
# Ring current - start: 301.1
# Primary slits:  vertical gap=  2.4; horizontal gap= 52.0; vertical offset=  0.4; horizontal offset= -1.0
# Secondary slits:  vertical gap=  3.5; horizontal gap= 23.0; vertical offset=  5.3; horizontal offset= -14.5
# OH Mirror Coating: Pt
# White beam filter: 140um PyC
# Crystal cut: Si(311)
# PostDCM slits:  vertical gap= 18.0; horizontal gap= 28.0; vertical offset= -9.1; horizontal offset= -16.5
# Experimental slits:  vertical gap= 28.6; horizontal gap= 45.0; vertical offset=  5.7; horizontal offset= -17.5
# HR Mirror : out; Y: 37.8; Pitch:  0.3; Coating: Pt
# Mirror 2: Pitch:  2.3; Height: -6.4; Yaw: -1.6; Bend:  0.8;
# I0 Stanford sensitivity: 20 nA/V Offsets: 20 pA
# It Stanford sensitivity: 100 nA/V Offsets: 1 pA
# Iref Stanford sensitivity: 20 nA/V Offsets: 1 pA
#
# Ascii output file name: 'Andrea_Sn//ascii/262921_PtSn_OCO_H2_Abu_3.dat'
# Nexus output file: '/dls/b18/data/2016/sp10306-9/Andrea_Sn//nexus/262921_PtSn_OCO_H2_Abu_3.nxs'
# XML folder and files:
# /dls/b18/data/2016/sp10306-9/xml/Andrea_Sn/
# QEXAFS_Parameters
# Sample_Parameters
# Detector_Parameters
# Output_Parameters
# The contents of these files are also stored in the nexus file.
#
# Sample name: PtSn_OCO_H2_Abu
# Sample description: default sample description
# Additional comments: default additional comments
# command: qexafs_energy 29000.0 30050.0 2094 263.53 qexafs_counterTimer01
#
#
# qexafs_energy	   time	       I0	       It	     Iref	  lnI0It	 lnItIref
     29000.24	0.14218	2287020.0	1822055.0	3768409.0	0.227285	-0.726688
     29000.73	0.14929	2391527.0	1905426.0	3941382.0	0.227226	-0.726826
     29001.21	0.16908	2719236.0	2166981.0	4481342.0	0.227016	-0.726588
     29001.69	0.081059	1292001.0	1029538.0	2130213.0	0.227082	-0.727112
     29002.18	0.12167	1952598.0	1555692.0	3218280.0	0.227240	-0.726927
     29002.66	0.13394	2142890.0	1707668.0	3532466.0	0.227027	-0.726868
     29003.14	0.11971	1921416.0	1530949.0	3166694.0	0.227175	-0.726800
     29003.63	0.13418	2140844.0	1706180.0	3528649.0	0.226943	-0.726658
     29004.11	0.11605	1849242.0	1473719.0	3049149.0	0.226987	-0.727073
     29004.59	0.13914	2237641.0	1783245.0	3688884.0	0.226987	-0.726889
     29005.08	0.11326	1821498.0	1451733.0	3002690.0	0.226901	-0.726751
     29005.56	0.13507	2163204.0	1724320.0	3567174.0	0.226758	-0.726941
     29006.05	0.11523	1850660.0	1474948.0	3051100.0	0.226920	-0.726879
     29006.53	0.12333	1959499.0	1561471.0	3230519.0	0.227061	-0.727014
     29007.01	0.13315	2122938.0	1692382.0	3501074.0	0.226664	-0.726933
     29007.50	0.12571	2022518.0	1611919.0	3334361.0	0.226918	-0.726856
     29007.98	0.13116	2097362.0	1671857.0	3458030.0	0.226745	-0.726764
     29008.46	0.13174	2104379.0	1677675.0	3470850.0	0.226612	-0.726991
     29008.95	0.092480	1488415.0	1186529.0	2454640.0	0.226680	-0.726948
     29009.43	0.12056	1929621.0	1538228.0	3182889.0	0.226693	-0.727158
     29009.92	0.12017	1919057.0	1530225.0	3166046.0	0.226419	-0.727069
     29010.40	0.12013	1934688.0	1542276.0	3190206.0	0.226687	-0.726826
     29010.88	0.13026	2096240.0	1670981.0	3455846.0	0.226734	-0.726656
     29011.37	0.12964	2090864.0	1666601.0	3446953.0	0.226791	-0.726704
     29011.85	0.12869	2068947.0	1649541.0	3413289.0	0.226543	-0.727179
     29012.34	0.13262	2136913.0	1704148.0	3526016.0	0.226297	-0.727103
     29012.82	0.11750	1885523.0	1503367.0	3110246.0	0.226498	-0.726995
     29013.30	0.13014	2099599.0	1674072.0	3462869.0	0.226487	-0.726838
     29013.79	0.13103	2112150.0	1683979.0	3484416.0	0.226547	-0.727141
     29014.27	0.12244	1973122.0	1573310.0	3255166.0	0.226435	-0.727062
     29014.76	0.12821	2064048.0	1646025.0	3406052.0	0.226306	-0.727191
     29015.24	0.13145	2123044.0	1693505.0	3502746.0	0.226051	-0.726747
     29015.72	0.12482	2009866.0	1602556.0	3315578.0	0.226468	-0.727032
     29016.21	0.11308	1826473.0	1457075.0	3014570.0	0.225956	-0.727026
     29016.69	0.13237	2138256.0	1705322.0	3528287.0	0.226237	-0.727059
     29017.18	0.11763	1899584.0	1515297.0	3134388.0	0.226023	-0.726822
     29017.66	0.13187	2118400.0	1689871.0	3496071.0	0.226009	-0.726988
     29018.14	0.12127	1953710.0	1558377.0	3223776.0	0.226085	-0.726908
     29018.63	0.13249	2126465.0	1696395.0	3509542.0	0.225956	-0.726980
     29019.11	0.12897	2078769.0	1658245.0	3430916.0	0.226016	-0.727067
     29019.60	0.14011	2257664.0	1800745.0	3725914.0	0.226130	-0.727112
     29020.08	0.12511	1991398.0	1588592.0	3286919.0	0.225989	-0.727103
     29020.57	0.12850	2066585.0	1648374.0	3410543.0	0.226108	-0.727082
     29021.05	0.12730	2038639.0	1626244.0	3365426.0	0.226009	-0.727281
     29021.53	0.12749	2041380.0	1628611.0	3368838.0	0.225899	-0.726840
     29022.02	0.12412	1981331.0	1580277.0	3269893.0	0.226169	-0.727157
     29022.50	0.13675	2179764.0	1739025.0	3599228.0	0.225892	-0.727395
     29022.99	0.12418	1982752.0	1581747.0	3273143.0	0.225956	-0.727221
     29023.47	0.14108	2263756.0	1806422.0	3737204.0	0.225677	-0.726990
     29023.96	0.10359	1658041.0	1322783.0	2737334.0	0.225899	-0.727247
     29024.44	0.11641	1865942.0	1489028.0	3080626.0	0.225642	-0.727009
     29024.92	0.12450	1986644.0	1585116.0	3280045.0	0.225789	-0.727200
     29025.41	0.11739	1881463.0	1501578.0	3106946.0	0.225533	-0.727124
     29025.89	0.12919	2054815.0	1639859.0	3393437.0	0.225576	-0.727233
     29026.38	0.12753	2038801.0	1626730.0	3366149.0	0.225790	-0.727197
     29026.86	0.11186	1788284.0	1427605.0	2953713.0	0.225258	-0.727065
     29027.35	0.12133	1946362.0	1553617.0	3214399.0	0.225376	-0.727055
     29027.83	0.11597	1849484.0	1476276.0	3055242.0	0.225384	-0.727336
     29028.32	0.10314	1650298.0	1316993.0	2724609.0	0.225605	-0.726974
     29028.80	0.10887	1754452.0	1400150.0	2896851.0	0.225577	-0.727045
     29029.28	0.12067	1944976.0	1552124.0	3210990.0	0.225625	-0.726955
     29029.77	0.13172	2102741.0	1679193.0	3475239.0	0.224928	-0.727350
     29030.25	0.14516	2319527.0	1851706.0	3830901.0	0.225256	-0.726993
     29030.74	0.12076	1934006.0	1543750.0	3194679.0	0.225379	-0.727272
     29031.22	0.12806	2045115.0	1632503.0	3377950.0	0.225340	-0.727155
     29031.71	0.11970	1916317.0	1529751.0	3165771.0	0.225300	-0.727292
     29032.19	0.11933	1914521.0	1528469.0	3162114.0	0.225201	-0.726974
     29032.68	0.13372	2153624.0	1719690.0	3557852.0	0.225008	-0.727013
     29033.16	0.12767	2045470.0	1633034.0	3378615.0	0.225188	-0.727026
     29033.65	0.15258	2448009.0	1954688.0	4044723.0	0.225044	-0.727182
     29034.13	0.13649	2190516.0	1749114.0	3617876.0	0.225028	-0.726778
     29034.62	0.14622	2336834.0	1865411.0	3860539.0	0.225316	-0.727325
     29035.10	0.089742	1440049.0	1149519.0	2378783.0	0.225334	-0.727245
     29035.58	0.12366	1983304.0	1583816.0	3277038.0	0.224927	-0.727103
     29036.07	0.12451	1993375.0	1591406.0	3293175.0	0.225211	-0.727234
     29036.55	0.13227	2119122.0	1692167.0	3500574.0	0.224992	-0.726917
     29037.04	0.14223	2267651.0	1810931.0	3746701.0	0.224903	-0.727035
     29037.52	0.12324	1975865.0	1577811.0	3264216.0	0.224968	-0.726981
     29038.01	0.14057	2238540.0	1787725.0	3699523.0	0.224880	-0.727260
     29038.49	0.14507	2316321.0	1850234.0	3828612.0	0.224668	-0.727190
     29038.98	0.11584	1852545.0	1479528.0	3061681.0	0.224837	-0.727241
     29039.46	0.12772	2037676.0	1627507.0	3367488.0	0.224761	-0.727118
     29039.95	0.13246	2108704.0	1683879.0	3484643.0	0.224973	-0.727266
     29040.43	0.13071	2092027.0	1670581.0	3456361.0	0.224962	-0.727045
     29040.92	0.12780	2042203.0	1630662.0	3373808.0	0.225043	-0.727056
     29041.40	0.11875	1894494.0	1513218.0	3130574.0	0.224713	-0.726978
     29041.89	0.12795	2045332.0	1634057.0	3380333.0	0.224494	-0.726908
     29042.37	0.12662	2015132.0	1609984.0	3330711.0	0.224460	-0.726962
     29042.86	0.11668	1862472.0	1487483.0	3077688.0	0.224819	-0.727093
     29043.34	0.12940	2059127.0	1644866.0	3403330.0	0.224623	-0.727095
     29043.83	0.12986	2082967.0	1664047.0	3442391.0	0.224541	-0.726914
     29044.31	0.12472	1991912.0	1591072.0	3291670.0	0.224687	-0.726987
     29044.80	0.12218	1931904.0	1543788.0	3195075.0	0.224267	-0.727371
     29045.28	0.12917	2045285.0	1634331.0	3381607.0	0.224304	-0.727117
     29045.77	0.11898	1887486.0	1507963.0	3120027.0	0.224486	-0.727082
     29046.25	0.11470	1834564.0	1465626.0	3032758.0	0.224524	-0.727190
     29046.74	0.11867	1880045.0	1501716.0	3107766.0	0.224687	-0.727296
     29047.22	0.12134	1929952.0	1542205.0	3191054.0	0.224282	-0.727138
     29047.71	0.12011	1918977.0	1533505.0	3171872.0	0.224236	-0.726766
     29048.19	0.12670	2029352.0	1622013.0	3355067.0	0.224049	-0.726804
     29048.68	0.11648	1845460.0	1474464.0	3050484.0	0.224434	-0.727006
     29049.16	0.12893	2044139.0	1633662.0	3379967.0	0.224153	-0.727042
     29049.65	0.13219	2106995.0	1684163.0	3483791.0	0.223994	-0.726852
     29050.13	0.11748	1862415.0	1488598.0	3079599.0	0.224039	-0.726965
     29050.62	0.13551	2159352.0	1725965.0	3569979.0	0.224022	-0.726773
     29051.10	0.12891	2049777.0	1637930.0	3388347.0	0.224298	-0.726909
     29051.59	0.12776	2039503.0	1630136.0	3371553.0	0.224043	-0.726710
     29052.08	0.13831	2208304.0	1764976.0	3650403.0	0.224088	-0.726700
     29052.56	0.11944	1914494.0	1530398.0	3164779.0	0.223926	-0.726555
     29053.05	0.11835	1882454.0	1505005.0	3113089.0	0.223780	-0.726819
     29053.53	0.12294	1976871.0	1580093.0	3267635.0	0.224032	-0.726583
     29054.02	0.12803	2032690.0	1625186.0	3361587.0	0.223738	-0.726791
     29054.50	0.12200	1957072.0	1564370.0	3234998.0	0.223966	-0.726545
     29054.99	0.13040	2075467.0	1658550.0	3430571.0	0.224242	-0.726783
     29055.47	0.13277	2119718.0	1694883.0	3504511.0	0.223669	-0.726437
     29055.96	0.12294	1964536.0	1570451.0	3248245.0	0.223893	-0.726752
     29056.44	0.14347	2268666.0	1813519.0	3751076.0	0.223923	-0.726774
     29056.93	0.12684	2026778.0	1620484.0	3350826.0	0.223722	-0.726482
     29057.41	0.11786	1859826.0	1486847.0	3075389.0	0.223825	-0.726774
     29057.90	0.13130	2078043.0	1661532.0	3436473.0	0.223687	-0.726706
     29058.39	0.13288	2124290.0	1698871.0	3512855.0	0.223474	-0.726465
     29058.87	0.12184	1937087.0	1549227.0	3203317.0	0.223429	-0.726431
     29059.36	0.13024	2065451.0	1651807.0	3416130.0	0.223479	-0.726638
     29059.84	0.13101	2088960.0	1670813.0	3454928.0	0.223356	-0.726491
     29060.33	0.13832	2214292.0	1770464.0	3661031.0	0.223691	-0.726503
     29060.81	0.11524	1841931.0	1472865.0	3045895.0	0.223605	-0.726585
     29061.30	0.11045	1756165.0	1404787.0	2905062.0	0.223247	-0.726569
     29061.78	0.12097	1914750.0	1531466.0	3166566.0	0.223362	-0.726422
     29062.27	0.13428	2136073.0	1708339.0	3532794.0	0.223448	-0.726568
     29062.76	0.12677	2024924.0	1619613.0	3348910.0	0.223345	-0.726448
     29063.24	0.11792	1885958.0	1508586.0	3118955.0	0.223263	-0.726325
     29063.73	0.13290	2103172.0	1682621.0	3478529.0	0.223094	-0.726257
     29064.21	0.14714	2329668.0	1863611.0	3853859.0	0.223210	-0.726559
     29064.70	0.11470	1815355.0	1451873.0	3002065.0	0.223427	-0.726446
     29065.18	0.080605	1273766.0	1018674.0	2106314.0	0.223476	-0.726438
     29065.67	0.095078	1495743.0	1196607.0	2473921.0	0.223133	-0.726314
     29066.16	0.12051	1914626.0	1531712.0	3166803.0	0.223136	-0.726336
     29066.64	0.12293	1961316.0	1568937.0	3243794.0	0.223217	-0.726345
     29067.13	0.12303	1960414.0	1568431.0	3242614.0	0.223080	-0.726304
     29067.61	0.13340	2099000.0	1679002.0	3471818.0	0.223261	-0.726479
     29068.10	0.16829	2669996.0	2136164.0	4415798.0	0.223065	-0.726177
     29068.59	0.089330	1405305.0	1124399.0	2324901.0	0.223006	-0.726429
     29069.07	0.11403	1806009.0	1444402.0	2986460.0	0.223424	-0.726393
     29069.56	0.11935	1875684.0	1500675.0	3102340.0	0.223058	-0.726242
     29070.04	0.13324	2102549.0	1682211.0	3477931.0	0.223041	-0.726329
     29070.53	0.14101	2230284.0	1784536.0	3689126.0	0.222970	-0.726231
     29071.01	0.12083	1917836.0	1534988.0	3172666.0	0.222675	-0.726050
     29071.50	0.14934	2358480.0	1886963.0	3900290.0	0.223049	-0.726082
     29071.99	0.17271	2736789.0	2190094.0	4527396.0	0.222841	-0.726202
     29072.47	0.086741	1375033.0	1100635.0	2274783.0	0.222590	-0.725997
     29072.96	0.097815	1559212.0	1247892.0	2579352.0	0.222725	-0.726082
     29073.44	0.14123	2227597.0	1782653.0	3684245.0	0.222821	-0.725963
     29073.93	0.12527	1978589.0	1583665.0	3273078.0	0.222642	-0.725989
     29074.42	0.13376	2099912.0	1680411.0	3473440.0	0.222857	-0.726107
     29074.90	0.13680	2162887.0	1731129.0	3577198.0	0.222670	-0.725806
     29075.39	0.13865	2176935.0	1742141.0	3600517.0	0.222803	-0.725963
     29075.87	0.16814	2651467.0	2122213.0	4385216.0	0.222654	-0.725779
     29076.36	0.11016	1738717.0	1391881.0	2875531.0	0.222491	-0.725581
     29076.85	0.11573	1828642.0	1464012.0	3024974.0	0.222393	-0.725722
     29077.33	0.13260	2107653.0	1687413.0	3485876.0	0.222378	-0.725523
     29077.82	0.12460	1975161.0	1580913.0	3266198.0	0.222647	-0.725624
     29078.31	0.12929	2041212.0	1633705.0	3375367.0	0.222693	-0.725654
     29078.79	0.13454	2129819.0	1704737.0	3521805.0	0.222626	-0.725563
     29079.28	0.11949	1895167.0	1517459.0	3133884.0	0.222270	-0.725236
     29079.76	0.13852	2183398.0	1747931.0	3610145.0	0.222450	-0.725315
     29080.25	0.11258	1784075.0	1428141.0	2949030.0	0.222526	-0.725103
     29080.74	0.13181	2090184.0	1672888.0	3454023.0	0.222701	-0.724988
     29081.22	0.12236	1949091.0	1560353.0	3221147.0	0.222451	-0.724825
     29081.71	0.13184	2087845.0	1671847.0	3452080.0	0.222203	-0.725048
     29082.20	0.12298	1958980.0	1568569.0	3238476.0	0.222260	-0.724939
     29082.68	0.12606	1994171.0	1596909.0	3297199.0	0.222159	-0.725003
     29083.17	0.12792	2034296.0	1628686.0	3362547.0	0.222376	-0.724925
     29083.65	0.11531	1815039.0	1453749.0	3001270.0	0.221961	-0.724890
     29084.14	0.11580	1820373.0	1457422.0	3008792.0	0.222372	-0.724870
     29084.63	0.11966	1892319.0	1515132.0	3127735.0	0.222300	-0.724807
     29085.11	0.11300	1799065.0	1440716.0	2973554.0	0.222127	-0.724618
     29085.60	0.12293	1950548.0	1562040.0	3223648.0	0.222118	-0.724521
     29086.09	0.12488	1980849.0	1586420.0	3273928.0	0.222046	-0.724511
     29086.57	0.11795	1876936.0	1503037.0	3101406.0	0.222153	-0.724368
     29087.06	0.12699	2013280.0	1612340.0	3326841.0	0.222079	-0.724337
     29087.55	0.12097	1920845.0	1538394.0	3174617.0	0.222026	-0.724448
     29088.03	0.12633	2001538.0	1603248.0	3307815.0	0.221884	-0.724256
     29088.52	0.13639	2162350.0	1732097.0	3573366.0	0.221863	-0.724175
     29089.01	0.12599	1981362.0	1587009.0	3273760.0	0.221933	-0.724088
     29089.49	0.13028	2071129.0	1658946.0	3422954.0	0.221911	-0.724321
     29089.98	0.13986	2201670.0	1763341.0	3636843.0	0.222006	-0.723906
     29090.47	0.12119	1921793.0	1539926.0	3175750.0	0.221524	-0.723809
     29090.95	0.12807	2036187.0	1631065.0	3363167.0	0.221846	-0.723650
     29091.44	0.12214	1936656.0	1551535.0	3199250.0	0.221718	-0.723672
     29091.93	0.11851	1871325.0	1498953.0	3090350.0	0.221880	-0.723517
     29092.41	0.12644	2019092.0	1617929.0	3334527.0	0.221501	-0.723184
     29092.90	0.13356	2120474.0	1698618.0	3501603.0	0.221825	-0.723406
     29093.39	0.12317	1948930.0	1561493.0	3218422.0	0.221638	-0.723249
     29093.87	0.12646	2007326.0	1608257.0	3314574.0	0.221653	-0.723178
     29094.36	0.14415	2282178.0	1828477.0	3768694.0	0.221647	-0.723245
     29094.85	0.11635	1838154.0	1472532.0	3034258.0	0.221778	-0.722984
     29095.33	0.12397	1953227.0	1565126.0	3224674.0	0.221517	-0.722866
     29095.82	0.13345	2102277.0	1684087.0	3469797.0	0.221797	-0.722873
     29096.31	0.12591	1992639.0	1596361.0	3288483.0	0.221733	-0.722700
     29096.79	0.13825	2197846.0	1761237.0	3627657.0	0.221461	-0.722571
     29097.28	0.12088	1903672.0	1525506.0	3142961.0	0.221458	-0.722839
     29097.77	0.13316	2089354.0	1674132.0	3447831.0	0.221560	-0.722451
     29098.25	0.11874	1886626.0	1512192.0	3113939.0	0.221230	-0.722328
     29098.74	0.12971	2056724.0	1648211.0	3393990.0	0.221424	-0.722316
     29099.23	0.11805	1873973.0	1501706.0	3091552.0	0.221459	-0.722071
     29099.71	0.12999	2044174.0	1638364.0	3373152.0	0.221296	-0.722149
     29100.20	0.12313	1940288.0	1554915.0	3200582.0	0.221416	-0.721912
     29100.69	0.11979	1895161.0	1518680.0	3125758.0	0.221462	-0.721835
     29101.17	0.12874	2034218.0	1630268.0	3355291.0	0.221367	-0.721794
     29101.66	0.12793	2023263.0	1621281.0	3336216.0	0.221495	-0.721621
     29102.15	0.11337	1791749.0	1435725.0	2954132.0	0.221522	-0.721535
     29102.64	0.11585	1829632.0	1466361.0	3016046.0	0.221331	-0.721163
     29103.12	0.10533	1646594.0	1319857.0	2714816.0	0.221186	-0.721201
     29103.61	0.11955	1873486.0	1501770.0	3088960.0	0.221156	-0.721190
     29104.10	0.11586	1818140.0	1457458.0	2996667.0	0.221120	-0.720807
     29104.58	0.11056	1725012.0	1382563.0	2843138.0	0.221295	-0.720969
     29105.07	0.12124	1902935.0	1525329.0	3135843.0	0.221187	-0.720688
     29105.56	0.12334	1953517.0	1566025.0	3218949.0	0.221091	-0.720514
     29106.04	0.11746	1843034.0	1477520.0	3036921.0	0.221048	-0.720479
     29106.53	0.13447	2115453.0	1696416.0	3485531.0	0.220751	-0.720103
     29107.02	0.11710	1846120.0	1480038.0	3041367.0	0.221018	-0.720239
     29107.51	0.12351	1947197.0	1561165.0	3207698.0	0.220959	-0.720121
     29107.99	0.14006	2197499.0	1761825.0	3619290.0	0.220970	-0.719928
     29108.48	0.11410	1788260.0	1433446.0	2944097.0	0.221162	-0.719721
     29108.97	0.14293	2240776.0	1796437.0	3689034.0	0.221017	-0.719559
     29109.46	0.13680	2145024.0	1720124.0	3530524.0	0.220754	-0.719050
     29109.94	0.13443	2101986.0	1685979.0	3460156.0	0.220536	-0.718967
     29110.43	0.12213	1917862.0	1537692.0	3156017.0	0.220928	-0.719028
     29110.92	0.11762	1846622.0	1480641.0	3038580.0	0.220883	-0.718915
     29111.40	0.12532	1974577.0	1583397.0	3247650.0	0.220782	-0.718359
     29111.89	0.13975	2191785.0	1757214.0	3604416.0	0.220987	-0.718430
     29112.38	0.11837	1849307.0	1483003.0	3040895.0	0.220742	-0.718083
     29112.87	0.12873	2019127.0	1619546.0	3319072.0	0.220519	-0.717539
     29113.35	0.13624	2130595.0	1708446.0	3502689.0	0.220817	-0.717947
     29113.84	0.13619	2149535.0	1723668.0	3532385.0	0.220797	-0.717519
     29114.33	0.14604	2321245.0	1861790.0	3814574.0	0.220565	-0.717291
     29114.82	0.12537	1972876.0	1582377.0	3241503.0	0.220564	-0.717109
     29115.30	0.12986	2062807.0	1654051.0	3387765.0	0.220840	-0.716943
     29115.79	0.12756	2017866.0	1618264.0	3313801.0	0.220687	-0.716742
     29116.28	0.13551	2136141.0	1713167.0	3507610.0	0.220657	-0.716591
     29116.77	0.13398	2113593.0	1695255.0	3469754.0	0.220556	-0.716251
     29117.25	0.12747	2006798.0	1609380.0	3293783.0	0.220691	-0.716188
     29117.74	0.12984	2054365.0	1647630.0	3370933.0	0.220629	-0.715852
     29118.23	0.11729	1861337.0	1493211.0	3054192.0	0.220366	-0.715586
     29118.72	0.11815	1855492.0	1488119.0	3042793.0	0.220637	-0.715263
     29119.20	0.12821	2025272.0	1624527.0	3320549.0	0.220487	-0.714913
     29119.69	0.12831	2020360.0	1620525.0	3312321.0	0.220526	-0.714899
     29120.18	0.12480	1963484.0	1575029.0	3218686.0	0.220447	-0.714700
     29120.67	0.12602	1990715.0	1597004.0	3262977.0	0.220364	-0.714511
     29121.15	0.13205	2085778.0	1672884.0	3416276.0	0.220593	-0.714002
     29121.64	0.12319	1933630.0	1551301.0	3167235.0	0.220305	-0.713765
     29122.13	0.11206	1767181.0	1417281.0	2892885.0	0.220645	-0.713514
     29122.62	0.12184	1904817.0	1528059.0	3117885.0	0.220388	-0.713157
     29123.10	0.12473	1946764.0	1561688.0	3185447.0	0.220401	-0.712825
     29123.59	0.12276	1927675.0	1546319.0	3153578.0	0.220437	-0.712660
     29124.08	0.11399	1798433.0	1442973.0	2941915.0	0.220210	-0.712355
     29124.57	0.11944	1886168.0	1513210.0	3083609.0	0.220314	-0.711867
     29125.06	0.12381	1931309.0	1549326.0	3156482.0	0.220378	-0.711638
     29125.54	0.11899	1877256.0	1505878.0	3067622.0	0.220435	-0.711527
     29126.03	0.12467	1975922.0	1585012.0	3227129.0	0.220443	-0.711001
     29126.52	0.12559	1986217.0	1593333.0	3243857.0	0.220404	-0.710935
     29127.01	0.12314	1938599.0	1555534.0	3164910.0	0.220147	-0.710306
     29127.49	0.13100	2057196.0	1650704.0	3358231.0	0.220142	-0.710212
     29127.98	0.13182	2071494.0	1661753.0	3379886.0	0.220397	-0.709969
     29128.47	0.13426	2102420.0	1686917.0	3428760.0	0.220186	-0.709296
     29128.96	0.13311	2064465.0	1656576.0	3366176.0	0.220118	-0.709025
     29129.45	0.12154	1906634.0	1529869.0	3108095.0	0.220157	-0.708828
     29129.93	0.12455	1956650.0	1569984.0	3187219.0	0.220168	-0.708083
     29130.42	0.11769	1851621.0	1485849.0	3014697.0	0.220075	-0.707513
     29130.91	0.12637	1993131.0	1599026.0	3244289.0	0.220312	-0.707502
     29131.40	0.13134	2075315.0	1665203.0	3377339.0	0.220166	-0.707141
     29131.89	0.11815	1850038.0	1484003.0	3008270.0	0.220463	-0.706622
     29132.37	0.11796	1864562.0	1496273.0	3030833.0	0.220049	-0.705860
     29132.86	0.12953	2027740.0	1627142.0	3295204.0	0.220097	-0.705643
     29133.35	0.12916	2031659.0	1630260.0	3299674.0	0.220113	-0.705084
     29133.84	0.13704	2129409.0	1708769.0	3457475.0	0.220071	-0.704765
     29134.33	0.11891	1860321.0	1492491.0	3018768.0	0.220303	-0.704402
     29134.81	0.13165	2070496.0	1661391.0	3358558.0	0.220133	-0.703857
     29135.30	0.13633	2139247.0	1716791.0	3468296.0	0.219997	-0.703207
     29135.79	0.12647	1996921.0	1602455.0	3235484.0	0.220070	-0.702642
     29136.28	0.12711	1992205.0	1598566.0	3226763.0	0.220135	-0.702372
     29136.77	0.12796	1990207.0	1596667.0	3221095.0	0.220320	-0.701803
     29137.25	0.13461	2110354.0	1693103.0	3414425.0	0.220293	-0.701446
     29137.74	0.12363	1936205.0	1554083.0	3131752.0	0.219844	-0.700707
     29138.23	0.13012	2059512.0	1652568.0	3328450.0	0.220139	-0.700176
     29138.72	0.12161	1894880.0	1520719.0	3061018.0	0.219972	-0.699564
     29139.21	0.12500	1965981.0	1577230.0	3172403.0	0.220321	-0.698819
     29139.70	0.12040	1900499.0	1524864.0	3066532.0	0.220211	-0.698642
     29140.18	0.12049	1889039.0	1515724.0	3046450.0	0.220175	-0.698084
     29140.67	0.13247	2087224.0	1674788.0	3362630.0	0.220148	-0.697037
     29141.16	0.12720	1993942.0	1599722.0	3211439.0	0.220284	-0.696889
     29141.65	0.12240	1922727.0	1542856.0	3094380.0	0.220109	-0.695952
     29142.14	0.11028	1734207.0	1390973.0	2788133.0	0.220547	-0.695369
     29142.63	0.13025	2032250.0	1630775.0	3266741.0	0.220088	-0.694737
     29143.11	0.11079	1729812.0	1387585.0	2778174.0	0.220448	-0.694229
     29143.60	0.11910	1852662.0	1486438.0	2973263.0	0.220241	-0.693277
     29144.09	0.11066	1725251.0	1383683.0	2765712.0	0.220624	-0.692549
     29144.58	0.11748	1836614.0	1473044.0	2942407.0	0.220593	-0.691897
     29145.07	0.11902	1873115.0	1502922.0	2999951.0	0.220192	-0.691185
     29145.56	0.11703	1820287.0	1460088.0	2912088.0	0.220497	-0.690374
     29146.04	0.12232	1896401.0	1521321.0	3031542.0	0.220379	-0.689492
     29146.53	0.12831	2011378.0	1613421.0	3212558.0	0.220463	-0.688711
     29147.02	0.13087	2061406.0	1653679.0	3289807.0	0.220386	-0.687826
     29147.51	0.12375	1938851.0	1555284.0	3090771.0	0.220437	-0.686762
     29148.00	0.13315	2080612.0	1669360.0	3314240.0	0.220222	-0.685788
     29148.49	0.12176	1901621.0	1525442.0	3025336.0	0.220422	-0.684738
     29148.98	0.13414	2083764.0	1671565.0	3312494.0	0.220416	-0.683941
     29149.46	0.12874	2012293.0	1614272.0	3195466.0	0.220391	-0.682849
     29149.95	0.15461	2417431.0	1939500.0	3834774.0	0.220275	-0.681680
     29150.44	0.11152	1746628.0	1400811.0	2768033.0	0.220636	-0.681086
     29150.93	0.11162	1764957.0	1415746.0	2794181.0	0.220470	-0.679882
     29151.42	0.12367	1936295.0	1552460.0	3060921.0	0.220936	-0.678875
     29151.91	0.12869	2024909.0	1624221.0	3198415.0	0.220496	-0.677627
     29152.40	0.13273	2076957.0	1665451.0	3275772.0	0.220808	-0.676458
     29152.88	0.14231	2230423.0	1788792.0	3513432.0	0.220651	-0.675053
     29153.37	0.13164	2070266.0	1660062.0	3257473.0	0.220822	-0.674097
     29153.86	0.15303	2416213.0	1937678.0	3796889.0	0.220711	-0.672692
     29154.35	0.11767	1840391.0	1475538.0	2887289.0	0.220955	-0.671295
     29154.84	0.11889	1869265.0	1499050.0	2929582.0	0.220714	-0.670028
     29155.33	0.12816	2008500.0	1610018.0	3141284.0	0.221143	-0.668386
     29155.82	0.13229	2070585.0	1660216.0	3234458.0	0.220883	-0.666914
     29156.31	0.13024	2048360.0	1641896.0	3193769.0	0.221188	-0.665350
     29156.79	0.13455	2094308.0	1679142.0	3260540.0	0.220940	-0.663610
     29157.28	0.12084	1889367.0	1514700.0	2936853.0	0.221024	-0.662121
     29157.77	0.12700	1989943.0	1594864.0	3087054.0	0.221318	-0.660429
     29158.26	0.12802	2009400.0	1610544.0	3111281.0	0.221264	-0.658463
     29158.75	0.12602	1981355.0	1587826.0	3061927.0	0.221415	-0.656679
     29159.24	0.11973	1866238.0	1495699.0	2878232.0	0.221331	-0.654583
     29159.73	0.12662	1984777.0	1590217.0	3053850.0	0.221636	-0.652533
     29160.22	0.12933	2032414.0	1628476.0	3121458.0	0.221580	-0.650656
     29160.71	0.12032	1876017.0	1502868.0	2873697.0	0.221776	-0.648224
     29161.19	0.13322	2091406.0	1675347.0	3197233.0	0.221816	-0.646265
     29161.68	0.11554	1808773.0	1448540.0	2757596.0	0.222093	-0.643803
     29162.17	0.13299	2084442.0	1669805.0	3170165.0	0.221794	-0.641077
     29162.66	0.12155	1905037.0	1525815.0	2889415.0	0.221973	-0.638525
     29163.15	0.12034	1881478.0	1506440.0	2844920.0	0.222308	-0.635786
     29163.64	0.12731	1994047.0	1596609.0	3006798.0	0.222284	-0.632994
     29164.13	0.12210	1903668.0	1523463.0	2860860.0	0.222797	-0.630136
     29164.62	0.12522	1957196.0	1566346.0	2931372.0	0.222767	-0.626725
     29165.11	0.10301	1595915.0	1277312.0	2382605.0	0.222689	-0.623437
     29165.60	0.12627	1966091.0	1573295.0	2924100.0	0.222875	-0.619815
     29166.09	0.12503	1950132.0	1560305.0	2888568.0	0.223016	-0.615880
     29166.57	0.12477	1954212.0	1563107.0	2883528.0	0.223312	-0.612339
     29167.06	0.12830	2007204.0	1605709.0	2949854.0	0.223177	-0.608190
     29167.55	0.11732	1828551.0	1461764.0	2673747.0	0.223880	-0.603837
     29168.04	0.13721	2150204.0	1718542.0	3128783.0	0.224086	-0.599168
     29168.53	0.13907	2157058.0	1724060.0	3123521.0	0.224063	-0.594279
     29169.02	0.12379	1923585.0	1537399.0	2770387.0	0.224099	-0.588895
     29169.51	0.12689	1980496.0	1581818.0	2833679.0	0.224772	-0.583001
     29170.00	0.11655	1810308.0	1445593.0	2575406.0	0.224977	-0.577488
     29170.49	0.12806	1978772.0	1579778.0	2796397.0	0.225192	-0.571047
     29170.98	0.12622	1960579.0	1564594.0	2750578.0	0.225613	-0.564185
     29171.47	0.11879	1848339.0	1474517.0	2572910.0	0.225957	-0.556707
     29171.96	0.13185	2054262.0	1638651.0	2837061.0	0.226043	-0.548895
     29172.45	0.12444	1921775.0	1531597.0	2628683.0	0.226938	-0.540172
     29172.94	0.12804	1993525.0	1588762.0	2702199.0	0.226949	-0.531111
     29173.42	0.12645	1974285.0	1572474.0	2649075.0	0.227556	-0.521560
     29173.91	0.12881	2008730.0	1598937.0	2665362.0	0.228164	-0.511001
     29174.40	0.12374	1932933.0	1538232.0	2533030.0	0.228405	-0.498783
     29174.89	0.14177	2217398.0	1763388.0	2869269.0	0.229097	-0.486820
     29175.38	0.12497	1944457.0	1545140.0	2477834.0	0.229868	-0.472270
     29175.87	0.13410	2100028.0	1667901.0	2636952.0	0.230385	-0.458058
     29176.36	0.12439	1928466.0	1529833.0	2376624.0	0.231566	-0.440522
     29176.85	0.13021	2034698.0	1613217.0	2463044.0	0.232117	-0.423168
     29177.34	0.13363	2082685.0	1650137.0	2466166.0	0.232800	-0.401806
     29177.83	0.12164	1893301.0	1498165.0	2192022.0	0.234081	-0.380583
     29178.32	0.12396	1935712.0	1530086.0	2184643.0	0.235151	-0.356128
     29178.81	0.12825	1985940.0	1568290.0	2174928.0	0.236106	-0.327010
     29179.30	0.12006	1870291.0	1474785.0	1982070.0	0.237582	-0.295630
     29179.79	0.12172	1899074.0	1495170.0	1943252.0	0.239126	-0.262123
     29180.28	0.12747	1958430.0	1539162.0	1918876.0	0.240905	-0.220501
     29180.77	0.12161	1874470.0	1470319.0	1750841.0	0.242847	-0.174617
     29181.26	0.11917	1857279.0	1454106.0	1653482.0	0.244721	-0.128492
     29181.75	0.10888	1696200.0	1324219.0	1425039.0	0.247568	-0.0733763
     29182.24	0.11324	1752743.0	1364581.0	1376367.0	0.250335	-0.00860000
     29182.73	0.11961	1855978.0	1440608.0	1363012.0	0.253347	0.0553683
     29183.22	0.11151	1725577.0	1335010.0	1175077.0	0.256623	0.127605
     29183.71	0.12321	1906592.0	1469818.0	1200427.0	0.260179	0.202461
     29184.20	0.10982	1713693.0	1316075.0	996097.0	0.263997	0.278564
     29184.68	0.11992	1840664.0	1407260.0	980204.0	0.268482	0.361639
     29185.17	0.12610	1951238.0	1486606.0	959287.0	0.271968	0.438061
     29185.66	0.11130	1736513.0	1317039.0	785725.0	0.276493	0.516534
     29186.15	0.13482	2109974.0	1592745.0	881565.0	0.281217	0.591515
     29186.64	0.12204	1905064.0	1432545.0	741726.0	0.285063	0.658228
     29187.13	0.14251	2213278.0	1656487.0	805242.0	0.289776	0.721312
     29187.62	0.12010	1866222.0	1390988.0	642519.0	0.293902	0.772373
     29188.11	0.14017	2172442.0	1612826.0	712106.0	0.297864	0.817516
     29188.60	0.12994	2033806.0	1504534.0	643687.0	0.301426	0.849026
     29189.09	0.12832	1998908.0	1473468.0	614700.0	0.304982	0.874240
     29189.58	0.12923	2021011.0	1484917.0	610691.0	0.308239	0.888523
     29190.07	0.11063	1715472.0	1256691.0	513544.0	0.311206	0.894902
     29190.56	0.13363	2061972.0	1507084.0	616149.0	0.313486	0.894443
     29191.05	0.14442	2230000.0	1626848.0	669532.0	0.315357	0.887821
     29191.54	0.12420	1927482.0	1403530.0	584030.0	0.317224	0.876793
     29192.03	0.13108	2042045.0	1484737.0	626048.0	0.318714	0.863566
     29192.52	0.13185	2048677.0	1488447.0	637876.0	0.319461	0.847345
     29193.01	0.12620	1941077.0	1409189.0	615067.0	0.320229	0.829038
     29193.50	0.14230	2213229.0	1607069.0	713247.0	0.320041	0.812340
     29193.99	0.13058	2025292.0	1470666.0	664211.0	0.319999	0.794871
     29194.48	0.13166	2036584.0	1479429.0	679775.0	0.319618	0.777650
     29194.97	0.13437	2094102.0	1522081.0	709854.0	0.319046	0.762774
     29195.46	0.12912	2012214.0	1463924.0	692310.0	0.318115	0.748842
     29195.95	0.12441	1937267.0	1411357.0	676422.0	0.316727	0.735490
     29196.44	0.13348	2046918.0	1492312.0	724427.0	0.316009	0.722701
     29196.93	0.11374	1763786.0	1287922.0	631084.0	0.314433	0.713346
     29197.42	0.12008	1853690.0	1355124.0	670555.0	0.313285	0.703543
     29197.92	0.13067	2026576.0	1483892.0	740248.0	0.311679	0.695438
     29198.41	0.12796	1993250.0	1461249.0	733670.0	0.310475	0.688987
     29198.90	0.13111	2038044.0	1496537.0	755597.0	0.308837	0.683401
     29199.39	0.12000	1865893.0	1371960.0	696084.0	0.307499	0.678525
     29199.88	0.12577	1962560.0	1445082.0	735918.0	0.306084	0.674803
     29200.37	0.12930	2012436.0	1483442.0	757689.0	0.304981	0.671847
     29200.86	0.12317	1906831.0	1407217.0	719872.0	0.303829	0.670296
     29201.35	0.12007	1866157.0	1378786.0	706389.0	0.302678	0.668793
     29201.84	0.11431	1780583.0	1316711.0	674832.0	0.301804	0.668428
     29202.33	0.12744	1992654.0	1474887.0	755530.0	0.300886	0.668917
     29202.82	0.12234	1910229.0	1414935.0	724065.0	0.300140	0.669958
     29203.31	0.11948	1868135.0	1384696.0	707291.0	0.299460	0.671794
     29203.80	0.12429	1941769.0	1440986.0	734620.0	0.298272	0.673730
     29204.29	0.12059	1878405.0	1394569.0	709010.0	0.297838	0.676471
     29204.78	0.12452	1951284.0	1449479.0	734699.0	0.297283	0.679499
     29205.27	0.11995	1859681.0	1382156.0	698124.0	0.296760	0.683003
     29205.76	0.12071	1890691.0	1405841.0	707699.0	0.296307	0.686372
     29206.25	0.13389	2085787.0	1552268.0	778943.0	0.295429	0.689534
     29206.74	0.13270	2068755.0	1539685.0	769932.0	0.295369	0.693031
     29207.23	0.13157	2049061.0	1525845.0	760408.0	0.294833	0.696449
     29207.72	0.12106	1891315.0	1409323.0	700567.0	0.294163	0.698975
     29208.21	0.13147	2051768.0	1528509.0	757836.0	0.294409	0.701581
     29208.70	0.12370	1935801.0	1442663.0	713395.0	0.294030	0.704211
     29209.19	0.11846	1848100.0	1377287.0	680524.0	0.294042	0.705008
     29209.69	0.12991	2031535.0	1514960.0	746642.0	0.293403	0.707558
     29210.18	0.12831	2001026.0	1492065.0	734899.0	0.293499	0.708183
     29210.67	0.13054	2034592.0	1517496.0	746879.0	0.293234	0.708914
     29211.16	0.11267	1752085.0	1306809.0	643101.0	0.293218	0.709042
     29211.65	0.13826	2139922.0	1596274.0	785872.0	0.293097	0.708634
     29212.14	0.12564	1942391.0	1449050.0	713727.0	0.293012	0.708163
     29212.63	0.12256	1908905.0	1424202.0	702236.0	0.292918	0.707097
     29213.12	0.12701	1978066.0	1475418.0	728494.0	0.293178	0.705717
     29213.61	0.12158	1887075.0	1408271.0	696873.0	0.292665	0.703515
     29214.10	0.14158	2200489.0	1641675.0	813939.0	0.292963	0.701587
     29214.59	0.13500	2106904.0	1571723.0	781560.0	0.293047	0.698636
     29215.08	0.12839	1990207.0	1484660.0	741219.0	0.293053	0.694645
     29215.57	0.12845	1999333.0	1491564.0	747362.0	0.292988	0.691031
     29216.06	0.13555	2109727.0	1573607.0	791948.0	0.293188	0.686630
     29216.56	0.11908	1849564.0	1379639.0	697446.0	0.293128	0.682152
     29217.05	0.12081	1886951.0	1407521.0	714962.0	0.293132	0.677356
     29217.54	0.12123	1895802.0	1413913.0	721712.0	0.293281	0.672490
     29218.03	0.12975	2031437.0	1515210.0	776960.0	0.293189	0.667920
     29218.52	0.13028	2029709.0	1513341.0	779314.0	0.293573	0.663661
     29219.01	0.12502	1949331.0	1453521.0	751440.0	0.293497	0.659753
     29219.50	0.12305	1912532.0	1425776.0	739223.0	0.293712	0.656872
     29219.99	0.13376	2080318.0	1550790.0	806019.0	0.293756	0.654412
     29220.48	0.11015	1717733.0	1280384.0	666342.0	0.293845	0.653112
     29220.97	0.10284	1606897.0	1197512.0	623639.0	0.294059	0.652430
     29221.47	0.10906	1701020.0	1267769.0	660202.0	0.293969	0.652468
     29221.96	0.11979	1878364.0	1399639.0	728411.0	0.294187	0.653104
     29222.45	0.11236	1753913.0	1306885.0	679172.0	0.294203	0.654527
     29222.94	0.12000	1870448.0	1393797.0	722587.0	0.294146	0.656949
     29223.43	0.12402	1938376.0	1444505.0	746178.0	0.294084	0.660558
     29223.92	0.12121	1892328.0	1409838.0	726633.0	0.294333	0.662809
     29224.41	0.11945	1865227.0	1389570.0	713348.0	0.294388	0.666780
     29224.90	0.11732	1831712.0	1365291.0	698047.0	0.293883	0.670836
     29225.39	0.13265	2075233.0	1546269.0	787435.0	0.294229	0.674819
     29225.89	0.12539	1958334.0	1459320.0	739819.0	0.294124	0.679320
     29226.38	0.12810	2007696.0	1496263.0	755892.0	0.294017	0.682827
     29226.87	0.13757	2140046.0	1594961.0	802506.0	0.293978	0.686865
     29227.36	0.13615	2126614.0	1584879.0	793921.0	0.294023	0.691279
     29227.85	0.17667	2764139.0	2060273.0	1028606.0	0.293891	0.694634
     29228.34	0.088683	1383733.0	1031692.0	512602.0	0.293585	0.699456
     29228.83	0.13182	2058724.0	1535266.0	760119.0	0.293383	0.702984
     29229.32	0.10222	1589814.0	1185652.0	584659.0	0.293324	0.707019
     29229.81	0.13321	2081601.0	1551939.0	762614.0	0.293632	0.710508
     29230.31	0.12316	1919390.0	1431525.0	700666.0	0.293267	0.714464
     29230.80	0.14569	2256892.0	1682708.0	820375.0	0.293584	0.718398
     29231.29	0.14595	2279071.0	1699418.0	825404.0	0.293482	0.722168
     29231.78	0.13855	2156561.0	1608199.0	777903.0	0.293400	0.726268
     29232.27	0.10391	1615535.0	1204365.0	580369.0	0.293714	0.730044
     29232.76	0.13611	2115372.0	1577648.0	757138.0	0.293296	0.734145
     29233.25	0.13298	2060798.0	1537017.0	735053.0	0.293250	0.737656
     29233.75	0.12786	1992245.0	1485524.0	708088.0	0.293495	0.740954
     29234.24	0.13500	2093995.0	1561232.0	741430.0	0.293598	0.744650
     29234.73	0.13857	2158632.0	1609153.0	762171.0	0.293767	0.747292
     29235.22	0.19656	3066226.0	2285715.0	1079934.0	0.293769	0.749779
     29235.71	0.088153	1375526.0	1025479.0	483552.0	0.293676	0.751756
     29236.20	0.085125	1329770.0	991086.0	466572.0	0.293960	0.753389
     29236.69	0.12132	1890270.0	1408842.0	662430.0	0.293952	0.754608
     29237.19	0.12614	1969805.0	1467603.0	689708.0	0.294304	0.755117
     29237.68	0.12427	1935462.0	1442841.0	678029.0	0.293732	0.755179
     29238.17	0.13104	2040752.0	1520575.0	714869.0	0.294230	0.754745
     29238.66	0.12486	1944401.0	1448499.0	681988.0	0.294426	0.753271
     29239.15	0.14946	2326228.0	1733075.0	816468.0	0.294351	0.752665
     29239.64	0.094246	1470267.0	1095133.0	516979.0	0.294568	0.750629
     29240.14	0.12215	1896259.0	1412658.0	668860.0	0.294410	0.747654
     29240.63	0.12133	1885630.0	1404111.0	666451.0	0.294858	0.745193
     29241.12	0.12385	1922686.0	1431465.0	681591.0	0.295025	0.742024
     29241.61	0.11501	1791039.0	1333276.0	636949.0	0.295157	0.738705
     29242.10	0.12218	1896876.0	1412040.0	676937.0	0.295173	0.735213
     29242.59	0.12261	1913557.0	1424574.0	685407.0	0.295091	0.731615
     29243.09	0.12191	1900772.0	1414908.0	683795.0	0.295196	0.727162
     29243.58	0.11670	1810737.0	1347557.0	653788.0	0.295441	0.723265
     29244.07	0.12229	1909166.0	1420839.0	692146.0	0.295419	0.719206
     29244.56	0.12644	1968515.0	1464998.0	716563.0	0.295426	0.715143
     29245.05	0.12467	1939927.0	1443354.0	709186.0	0.295681	0.710607
     29245.55	0.13926	2153792.0	1602526.0	790569.0	0.295649	0.706583
     29246.04	0.12552	1951218.0	1451918.0	719068.0	0.295568	0.702685
     29246.53	0.14233	2211983.0	1645342.0	818328.0	0.295941	0.698440
     29247.02	0.12102	1878195.0	1396669.0	697122.0	0.296221	0.694885
     29247.51	0.12029	1868929.0	1390232.0	696509.0	0.295895	0.691145
     29248.00	0.12098	1884675.0	1401777.0	704217.0	0.296015	0.688409
     29248.50	0.12105	1886079.0	1402826.0	707288.0	0.296011	0.684806
     29248.99	0.12619	1965570.0	1461780.0	739249.0	0.296127	0.681775
     29249.48	0.12879	1999492.0	1486968.0	754109.0	0.296154	0.678958
     29249.97	0.13488	2101629.0	1563184.0	794489.0	0.295988	0.676781
     29250.46	0.13581	2113100.0	1571557.0	800739.0	0.296089	0.674287
     29250.96	0.11371	1762394.0	1310455.0	669432.0	0.296299	0.671700
     29251.45	0.12454	1928845.0	1433912.0	733322.0	0.296515	0.670577
     29251.94	0.12561	1959401.0	1456654.0	745971.0	0.296497	0.669211
     29252.43	0.13869	2149494.0	1598118.0	819451.0	0.296406	0.667947
     29252.92	0.12384	1927606.0	1433311.0	735254.0	0.296292	0.667526
     29253.42	0.13742	2136494.0	1588534.0	815301.0	0.296355	0.667009
     29253.91	0.12982	2017516.0	1499782.0	769988.0	0.296547	0.666700
     29254.40	0.13097	2042351.0	1518569.0	779775.0	0.296333	0.666518
     29254.89	0.11701	1819154.0	1352502.0	694193.0	0.296415	0.666961
     29255.39	0.12951	2015518.0	1498474.0	768551.0	0.296429	0.667696
     29255.88	0.12891	1997096.0	1485274.0	761366.0	0.296095	0.668240
     29256.37	0.11579	1799557.0	1338137.0	685311.0	0.296262	0.669161
     29256.86	0.12903	2006694.0	1492105.0	763127.0	0.296301	0.670519
     29257.35	0.12467	1941493.0	1443658.0	737063.0	0.296277	0.672262
     29257.85	0.13274	2065668.0	1535744.0	782920.0	0.296439	0.673740
     29258.34	0.17649	2736059.0	2035120.0	1035744.0	0.295964	0.675435
     29258.83	0.10458	1620427.0	1205188.0	611935.0	0.296054	0.677765
     29259.32	0.10772	1666387.0	1239268.0	627845.0	0.296137	0.679983
     29259.82	0.096915	1503746.0	1118247.0	565156.0	0.296197	0.682416
     29260.31	0.093959	1455509.0	1082731.0	545587.0	0.295869	0.685380
     29260.80	0.11759	1822937.0	1356268.0	681586.0	0.295712	0.688070
     29261.29	0.17056	2648984.0	1971197.0	988203.0	0.295535	0.690508
     29261.79	0.14613	2267402.0	1687534.0	843069.0	0.295366	0.693975
     29262.28	0.10435	1620517.0	1205968.0	600688.0	0.295463	0.696962
     29262.77	0.080523	1253291.0	932747.0	463155.0	0.295394	0.700072
     29263.26	0.097354	1499514.0	1116237.0	552185.0	0.295178	0.703835
     29263.75	0.12425	1928441.0	1435794.0	708029.0	0.294994	0.706988
     29264.25	0.12511	1941521.0	1445861.0	710517.0	0.294767	0.710467
     29264.74	0.13504	2083665.0	1552103.0	759882.0	0.294518	0.714203
     29265.23	0.15599	2407910.0	1793523.0	875267.0	0.294577	0.717408
     29265.72	0.12238	1881105.0	1401384.0	681793.0	0.294399	0.720490
     29266.22	0.13329	2069083.0	1541724.0	747658.0	0.294204	0.723711
     29266.71	0.12339	1909569.0	1423220.0	687988.0	0.293956	0.726906
     29267.20	0.11954	1845702.0	1375457.0	663443.0	0.294074	0.729098
     29267.70	0.11954	1851087.0	1379805.0	663480.0	0.293831	0.732199
     29268.19	0.13096	2032026.0	1514658.0	726575.0	0.293844	0.734603
     29268.68	0.13200	2047469.0	1526414.0	730642.0	0.293683	0.736753
     29269.17	0.12863	1993280.0	1485994.0	709771.0	0.293698	0.738897
     29269.67	0.14528	2251269.0	1678584.0	800624.0	0.293543	0.740314
     29270.16	0.12962	2006756.0	1496460.0	712941.0	0.293417	0.741459
     29270.65	0.13066	2029382.0	1513644.0	719961.0	0.293211	0.743078
     29271.14	0.12639	1959558.0	1461798.0	695052.0	0.293052	0.743436
     29271.64	0.12998	2013439.0	1502268.0	714138.0	0.292868	0.743655
     29272.13	0.14293	2218289.0	1655587.0	787049.0	0.292581	0.743620
     29272.62	0.13025	2016534.0	1505090.0	715802.0	0.292527	0.743204
     29273.11	0.12679	1956497.0	1460184.0	694630.0	0.292593	0.742938
     29273.61	0.12353	1908337.0	1424860.0	678150.0	0.292159	0.742460
     29274.10	0.12255	1881368.0	1404620.0	669640.0	0.292232	0.740782
     29274.59	0.13508	2075890.0	1550336.0	739653.0	0.291918	0.740046
     29275.09	0.11983	1856903.0	1386653.0	662481.0	0.292017	0.738656
     29275.58	0.13124	2014011.0	1504026.0	720148.0	0.291983	0.736444
     29276.07	0.12492	1924944.0	1437654.0	689296.0	0.291884	0.735097
     29276.56	0.13103	2025691.0	1513115.0	726535.0	0.291740	0.733639
     29277.06	0.12406	1916879.0	1431786.0	688900.0	0.291776	0.731582
     29277.55	0.12290	1899318.0	1419114.0	683990.0	0.291462	0.729845
     29278.04	0.12159	1876466.0	1402196.0	677143.0	0.291351	0.727912
     29278.54	0.11732	1815517.0	1357055.0	656784.0	0.291053	0.725717
     29279.03	0.12195	1889211.0	1411961.0	684718.0	0.291180	0.723728
     29279.52	0.12827	1969678.0	1472128.0	715364.0	0.291161	0.721673
     29280.02	0.11700	1790838.0	1338350.0	651722.0	0.291246	0.719575
     29280.51	0.12252	1878824.0	1403977.0	684835.0	0.291337	0.717886
     29281.00	0.11202	1722850.0	1287758.0	629614.0	0.291077	0.715551
     29281.49	0.11931	1841771.0	1376824.0	674148.0	0.290948	0.714085
     29281.99	0.13027	2002963.0	1496868.0	734308.0	0.291253	0.712202
     29282.48	0.12153	1873853.0	1400213.0	687872.0	0.291372	0.710777
     29282.97	0.12477	1909838.0	1427470.0	702450.0	0.291115	0.709085
     29283.47	0.13933	2118665.0	1583616.0	780495.0	0.291075	0.707538
     29283.96	0.12399	1885448.0	1409361.0	695636.0	0.291029	0.706065
     29284.45	0.15971	2437508.0	1822313.0	900778.0	0.290870	0.704603
     29284.95	0.11040	1684798.0	1259534.0	623194.0	0.290904	0.703639
     29285.44	0.12164	1871150.0	1398615.0	692821.0	0.291071	0.702466
     29285.93	0.10997	1682340.0	1257544.0	623654.0	0.291025	0.701320
     29286.43	0.12536	1931880.0	1444337.0	716810.0	0.290843	0.700595
     29286.92	0.12516	1919624.0	1435170.0	713017.0	0.290846	0.699533
     29287.41	0.12882	1963720.0	1468120.0	729830.0	0.290858	0.698926
     29287.91	0.13845	2111977.0	1578857.0	785235.0	0.290923	0.698473
     29288.40	0.13582	2086908.0	1560461.0	776765.0	0.290702	0.697599
     29288.89	0.11218	1720967.0	1286901.0	640745.0	0.290649	0.697361
     29289.39	0.12796	1959391.0	1464805.0	729874.0	0.290912	0.696605
     29289.88	0.12340	1891866.0	1414409.0	705005.0	0.290852	0.696262
     29290.37	0.13029	2002679.0	1497439.0	746383.0	0.290729	0.696273
     29290.87	0.13639	2076979.0	1553259.0	774536.0	0.290559	0.695846
     29291.36	0.13181	2018108.0	1508939.0	752561.0	0.290754	0.695680
     29291.85	0.13575	2061510.0	1541397.0	768709.0	0.290750	0.695732
     29292.35	0.12131	1855513.0	1387406.0	692221.0	0.290725	0.695286
     29292.84	0.12328	1885043.0	1409420.0	703031.0	0.290772	0.695533
     29293.33	0.11934	1831939.0	1369906.0	683323.0	0.290633	0.695530
     29293.83	0.12127	1841553.0	1376976.0	686827.0	0.290719	0.695563
     29294.32	0.12656	1936376.0	1447771.0	722290.0	0.290793	0.695354
     29294.81	0.13826	2104859.0	1573472.0	784720.0	0.290964	0.695713
     29295.31	0.12304	1876638.0	1403341.0	699611.0	0.290626	0.696087
     29295.80	0.13403	2040173.0	1525471.0	760255.0	0.290731	0.696405
     29296.29	0.10172	1552337.0	1160640.0	578042.0	0.290790	0.697080
     29296.79	0.11582	1753934.0	1311338.0	652847.0	0.290813	0.697460
     29297.28	0.11999	1831267.0	1369287.0	681516.0	0.290718	0.697726
     29297.77	0.11408	1748611.0	1307101.0	649916.0	0.291010	0.698724
     29298.27	0.11506	1751249.0	1309292.0	650892.0	0.290843	0.698898
     29298.76	0.14476	2208532.0	1651418.0	820213.0	0.290694	0.699826
     29299.26	0.11685	1781650.0	1331898.0	660935.0	0.290935	0.700705
     29299.75	0.13334	2038776.0	1524764.0	756218.0	0.290510	0.701265
     29300.24	0.084487	1295319.0	968702.0	479815.0	0.290555	0.702556
     29300.74	0.11115	1695835.0	1268059.0	627772.0	0.290688	0.703066
     29301.23	0.13226	2023615.0	1513387.0	748465.0	0.290535	0.704081
     29301.72	0.12470	1909070.0	1427364.0	705763.0	0.290787	0.704305
     29302.22	0.12119	1857247.0	1388541.0	685547.0	0.290842	0.705792
     29302.71	0.13728	2087875.0	1560990.0	770511.0	0.290827	0.706022
     29303.21	0.15165	2286876.0	1710307.0	843226.0	0.290514	0.707193
     29303.70	0.10886	1660503.0	1241695.0	611666.0	0.290643	0.708046
     29304.19	0.11710	1769865.0	1323075.0	651347.0	0.290945	0.708671
     29304.69	0.13340	2018109.0	1509156.0	742019.0	0.290610	0.709931
     29305.18	0.13022	1978772.0	1479721.0	727057.0	0.290623	0.710604
     29305.67	0.12869	1952382.0	1460349.0	716970.0	0.290375	0.711397
     29306.17	0.12995	1973514.0	1475506.0	723782.0	0.290815	0.712266
     29306.66	0.13504	2016117.0	1507469.0	739020.0	0.290741	0.712862
     29307.16	0.17043	2567996.0	1920508.0	940690.0	0.290536	0.713731
     29307.65	0.10287	1546146.0	1156199.0	565858.0	0.290627	0.714550
     29308.14	0.11471	1729889.0	1294020.0	632714.0	0.290304	0.715490
     29308.64	0.12679	1911775.0	1429353.0	698731.0	0.290810	0.715711
     29309.13	0.13746	2064793.0	1544174.0	754477.0	0.290541	0.716220
     29309.63	0.13013	1966196.0	1470306.0	717799.0	0.290630	0.717036
     29310.12	0.14585	2200194.0	1645274.0	802626.0	0.290639	0.717773
     29310.61	0.12435	1882218.0	1407566.0	686629.0	0.290589	0.717823
     29311.11	0.14863	2239961.0	1674746.0	816871.0	0.290797	0.717936
     29311.60	0.11970	1812473.0	1355132.0	660771.0	0.290793	0.718247
     29312.10	0.11181	1680473.0	1256376.0	612270.0	0.290844	0.718813
     29312.59	0.12454	1885899.0	1410389.0	686915.0	0.290539	0.719410
     29313.08	0.12316	1853024.0	1385535.0	674541.0	0.290733	0.719809
     29313.58	0.12793	1932528.0	1444696.0	703582.0	0.290930	0.719470
     29314.07	0.12997	1969931.0	1472751.0	716962.0	0.290866	0.719865
     29314.57	0.12801	1947744.0	1456213.0	708624.0	0.290833	0.720269
     29315.06	0.12780	1911452.0	1429682.0	695663.0	0.290411	0.720342
     29315.56	0.12010	1794846.0	1341812.0	652854.0	0.290898	0.720423
     29316.05	0.12062	1832505.0	1370079.0	666559.0	0.290815	0.720495
     29316.54	0.12112	1845578.0	1379817.0	671338.0	0.290842	0.720433
     29317.04	0.11912	1794630.0	1342032.0	653071.0	0.290614	0.720254
     29317.53	0.12001	1812800.0	1355134.0	659050.0	0.290972	0.720856
     29318.03	0.12893	1961313.0	1466083.0	713257.0	0.291020	0.720508
     29318.52	0.11630	1743695.0	1303860.0	634655.0	0.290677	0.720003
     29319.02	0.11734	1779623.0	1330924.0	647446.0	0.290528	0.720593
     29319.51	0.12510	1889748.0	1413040.0	687956.0	0.290700	0.719774
     29320.00	0.12093	1835986.0	1372942.0	668344.0	0.290626	0.719908
     29320.50	0.12123	1846657.0	1381223.0	672287.0	0.290408	0.720039
     29320.99	0.12503	1907866.0	1426421.0	694663.0	0.290817	0.719497
     29321.49	0.13652	2079279.0	1554591.0	757025.0	0.290809	0.719571
     29321.98	0.12635	1926792.0	1440831.0	701986.0	0.290636	0.719062
     29322.48	0.13454	2043562.0	1527695.0	744555.0	0.290934	0.718729
     29322.97	0.12679	1934042.0	1446387.0	705316.0	0.290543	0.718178
     29323.47	0.12269	1868178.0	1397228.0	681354.0	0.290473	0.718164
     29323.96	0.12682	1919628.0	1435621.0	700501.0	0.290534	0.717557
     29324.45	0.11887	1797963.0	1344684.0	656218.0	0.290495	0.717421
     29324.95	0.13095	1979374.0	1480458.0	723012.0	0.290429	0.716681
     29325.44	0.12238	1864182.0	1393977.0	680757.0	0.290662	0.716711
     29325.94	0.12622	1919882.0	1435544.0	701665.0	0.290720	0.715843
     29326.43	0.12818	1951394.0	1459316.0	713529.0	0.290576	0.715500
     29326.93	0.12377	1869483.0	1397629.0	683849.0	0.290885	0.714795
     29327.42	0.12677	1924764.0	1439018.0	704515.0	0.290842	0.714207
     29327.92	0.11807	1801734.0	1347044.0	659665.0	0.290837	0.713936
     29328.41	0.13981	2122425.0	1587484.0	777691.0	0.290409	0.713576
     29328.91	0.13221	2008178.0	1501920.0	736417.0	0.290484	0.712703
     29329.40	0.12933	1954075.0	1461352.0	717031.0	0.290555	0.711998
     29329.89	0.13919	2115291.0	1582035.0	776235.0	0.290480	0.712012
     29330.39	0.12675	1915978.0	1432871.0	703789.0	0.290548	0.710957
     29330.88	0.13248	2004326.0	1498853.0	736423.0	0.290608	0.710651
     29331.38	0.10894	1647119.0	1231813.0	605476.0	0.290541	0.710227
     29331.87	0.12935	1953847.0	1461190.0	718715.0	0.290549	0.709542
     29332.37	0.12431	1872664.0	1400832.0	689278.0	0.290296	0.709177
     29332.86	0.12849	1926084.0	1440662.0	709549.0	0.290386	0.708228
     29333.36	0.12735	1932657.0	1445877.0	712572.0	0.290180	0.707590
     29333.85	0.12739	1940773.0	1451921.0	715461.0	0.290199	0.707716
     29334.35	0.13278	2002309.0	1498236.0	738784.0	0.290013	0.707038
     29334.84	0.11197	1688249.0	1263538.0	622913.0	0.289776	0.707264
     29335.34	0.11418	1723616.0	1290038.0	636141.0	0.289753	0.707007
     29335.83	0.11329	1728105.0	1293326.0	638199.0	0.289808	0.706322
     29336.33	0.13124	1997033.0	1494245.0	737722.0	0.290042	0.705809
     29336.82	0.11428	1743629.0	1304681.0	644171.0	0.290010	0.705750
     29337.32	0.11591	1759229.0	1316745.0	650475.0	0.289713	0.705215
     29337.81	0.12141	1845279.0	1381050.0	682433.0	0.289786	0.704935
     29338.31	0.11733	1784560.0	1335539.0	660263.0	0.289837	0.704452
     29338.80	0.12899	1963149.0	1469959.0	726700.0	0.289315	0.704476
     29339.30	0.094228	1429292.0	1069948.0	528948.0	0.289569	0.704475
     29339.79	0.12556	1915197.0	1433570.0	709304.0	0.289653	0.703639
     29340.29	0.12282	1873502.0	1402912.0	694295.0	0.289259	0.703408
     29340.78	0.12835	1951766.0	1461457.0	723364.0	0.289301	0.703277
     29341.28	0.13927	2107332.0	1577854.0	781016.0	0.289357	0.703225
     29341.77	0.14362	2193606.0	1642563.0	813179.0	0.289289	0.703062
     29342.27	0.14729	2236504.0	1674640.0	829158.0	0.289316	0.702943
     29342.76	0.12326	1881054.0	1409113.0	697424.0	0.288872	0.703322
     29343.26	0.089145	1362052.0	1020038.0	505168.0	0.289153	0.702704
     29343.75	0.13412	2039208.0	1527670.0	756766.0	0.288818	0.702445
     29344.25	0.13606	2075401.0	1554623.0	770357.0	0.288921	0.702134
     29344.74	0.12626	1932808.0	1447779.0	717264.0	0.288943	0.702342
     29345.24	0.12778	1948581.0	1459780.0	723609.0	0.288816	0.701790
     29345.73	0.13143	2006864.0	1503657.0	745038.0	0.288673	0.702220
     29346.23	0.15856	2406649.0	1803314.0	893925.0	0.288609	0.701759
     29346.72	0.10385	1584961.0	1187782.0	588552.0	0.288472	0.702178
     29347.22	0.12876	1960243.0	1468939.0	727794.0	0.288528	0.702278
     29347.72	0.12843	1958404.0	1467490.0	727351.0	0.288576	0.701900
     29348.21	0.13397	2029583.0	1520842.0	753698.0	0.288566	0.702028
     29348.71	0.13708	2088470.0	1565147.0	775951.0	0.288452	0.701646
     29349.20	0.13196	2004524.0	1502282.0	744329.0	0.288421	0.702257
     29349.70	0.12896	1956028.0	1465571.0	726202.0	0.288671	0.702172
     29350.19	0.14031	2125242.0	1592707.0	788812.0	0.288451	0.702662
     29350.69	0.12283	1863881.0	1397071.0	692105.0	0.288283	0.702396
     29351.18	0.12347	1851738.0	1388073.0	687854.0	0.288208	0.702095
     29351.68	0.13047	1984318.0	1488192.0	736994.0	0.287713	0.702737
     29352.17	0.12401	1876099.0	1406726.0	696781.0	0.287930	0.702549
     29352.67	0.12556	1901916.0	1426165.0	706106.0	0.287873	0.702979
     29353.16	0.13080	1986561.0	1489465.0	737193.0	0.287988	0.703323
     29353.66	0.12157	1858249.0	1393424.0	689481.0	0.287871	0.703580
     29354.16	0.13446	2034415.0	1525905.0	754908.0	0.287621	0.703747
     29354.65	0.11176	1683126.0	1261799.0	624258.0	0.288114	0.703730
     29355.15	0.12292	1861426.0	1396191.0	690826.0	0.287595	0.703615
     29355.64	0.12583	1889475.0	1417074.0	700875.0	0.287705	0.704020
     29356.14	0.12052	1821790.0	1366209.0	675439.0	0.287780	0.704432
     29356.63	0.12724	1905498.0	1429892.0	706981.0	0.287144	0.704350
     29357.13	0.12655	1902687.0	1427374.0	705114.0	0.287431	0.705232
     29357.63	0.11140	1675167.0	1256963.0	620725.0	0.287214	0.705566
     29358.12	0.12926	1965221.0	1474808.0	728288.0	0.287077	0.705587
     29358.62	0.12106	1822558.0	1367966.0	675485.0	0.286916	0.705649
     29359.11	0.10958	1623995.0	1219213.0	601611.0	0.286684	0.706350
     29359.61	0.12445	1865802.0	1400299.0	691477.0	0.287005	0.705611
     29360.10	0.12191	1825338.0	1370051.0	676093.0	0.286917	0.706273
     29360.60	0.12728	1902192.0	1427430.0	704120.0	0.287131	0.706682
     29361.09	0.11506	1725831.0	1295479.0	638995.0	0.286828	0.706739
     29361.59	0.13866	2073086.0	1556086.0	767497.0	0.286865	0.706794
     29362.09	0.14297	2146952.0	1611522.0	794098.0	0.286870	0.707727
     29362.58	0.11941	1805606.0	1355704.0	668332.0	0.286575	0.707291
     29363.08	0.12920	1954108.0	1467186.0	723330.0	0.286588	0.707236
     29363.57	0.12858	1935155.0	1452751.0	715925.0	0.286728	0.707639
     29364.07	0.13323	2021592.0	1518108.0	747647.0	0.286420	0.708289
     29364.57	0.11633	1757073.0	1319417.0	649785.0	0.286459	0.708304
     29365.06	0.12193	1848494.0	1388229.0	683780.0	0.286342	0.708148
     29365.56	0.12833	1942685.0	1459209.0	718997.0	0.286177	0.707793
     29366.05	0.11808	1790211.0	1344326.0	662146.0	0.286441	0.708162
     29366.55	0.12642	1913443.0	1436950.0	707823.0	0.286381	0.708084
     29367.05	0.12248	1846560.0	1387421.0	683023.0	0.285878	0.708673
     29367.54	0.12662	1880004.0	1412046.0	695238.0	0.286234	0.708541
     29368.04	0.13466	2017085.0	1515257.0	746697.0	0.286068	0.707681
     29368.53	0.13338	2004679.0	1506267.0	741822.0	0.285850	0.708280
     29369.03	0.12069	1807073.0	1357593.0	668789.0	0.285995	0.708000
     29369.53	0.13378	2010712.0	1510844.0	744168.0	0.285820	0.708157
     29370.02	0.13546	2040404.0	1533093.0	755523.0	0.285861	0.707632
     29370.52	0.12215	1834776.0	1378837.0	679375.0	0.285682	0.707822
     29371.01	0.12934	1939230.0	1456922.0	718054.0	0.285965	0.707536
     29371.51	0.13158	1985598.0	1492186.0	735407.0	0.285678	0.707573
     29372.01	0.12275	1859618.0	1397431.0	688879.0	0.285736	0.707325
     29372.50	0.13091	1987394.0	1493424.0	736119.0	0.285753	0.707435
     29373.00	0.13314	2028121.0	1523749.0	751094.0	0.285936	0.707398
     29373.49	0.11732	1776974.0	1335369.0	658698.0	0.285704	0.706698
     29373.99	0.12233	1840714.0	1383230.0	682665.0	0.285732	0.706172
     29374.49	0.12970	1958972.0	1472358.0	726616.0	0.285555	0.706222
     29374.98	0.11793	1796098.0	1349686.0	666366.0	0.285745	0.705788
     29375.48	0.12474	1887379.0	1418633.0	700828.0	0.285495	0.705187
     29375.98	0.12586	1903791.0	1431000.0	707118.0	0.285474	0.704931
     29376.47	0.11104	1684988.0	1266898.0	625843.0	0.285187	0.705227
     29376.97	0.11329	1720609.0	1293335.0	639184.0	0.285454	0.704787
     29377.46	0.12501	1891024.0	1421301.0	702878.0	0.285546	0.704145
     29377.96	0.10804	1629924.0	1225601.0	606279.0	0.285102	0.703846
     29378.46	0.13855	2095486.0	1575210.0	779488.0	0.285397	0.703507
     29378.95	0.096961	1462591.0	1099382.0	544345.0	0.285461	0.702920
     29379.45	0.11097	1667250.0	1253471.0	620797.0	0.285259	0.702668
     29379.95	0.12954	1950794.0	1466422.0	726458.0	0.285411	0.702400
     29380.44	0.10910	1653845.0	1243350.0	616226.0	0.285294	0.701951
     29380.94	0.13670	2076369.0	1561269.0	774187.0	0.285122	0.701441
     29381.44	0.12843	1944718.0	1462153.0	725624.0	0.285207	0.700633
     29381.93	0.13513	2047946.0	1539739.0	764617.0	0.285224	0.699993
     29382.43	0.13335	2010072.0	1511256.0	750700.0	0.285229	0.699690
     29382.93	0.14463	2182573.0	1641147.0	815318.0	0.285109	0.699572
     29383.42	0.093411	1412685.0	1062005.0	528145.0	0.285334	0.698543
     29383.92	0.13916	2108392.0	1585051.0	788638.0	0.285309	0.698064
     29384.41	0.11885	1797368.0	1351984.0	672634.0	0.284750	0.698127
     29384.91	0.14433	2195433.0	1650860.0	821797.0	0.285083	0.697558
     29385.41	0.12313	1866433.0	1403795.0	699093.0	0.284850	0.697151
     29385.90	0.12429	1885732.0	1417833.0	706771.0	0.285186	0.696178
     29386.40	0.13039	1978545.0	1488095.0	742152.0	0.284865	0.695698
     29386.90	0.13016	1972482.0	1483302.0	740264.0	0.285022	0.695019
     29387.39	0.12806	1926854.0	1448998.0	723238.0	0.285016	0.694889
     29387.89	0.12503	1887666.0	1419805.0	709325.0	0.284822	0.693961
     29388.39	0.13984	2112958.0	1589182.0	794096.0	0.284869	0.693770
     29388.88	0.13055	1975301.0	1485444.0	742618.0	0.285007	0.693287
     29389.38	0.13188	1996590.0	1501611.0	751096.0	0.284902	0.692760
     29389.88	0.14302	2171473.0	1632923.0	816928.0	0.285034	0.692576
     29390.37	0.14314	2171225.0	1632640.0	817368.0	0.285093	0.691864
     29390.87	0.13028	1960669.0	1474581.0	738172.0	0.284912	0.691952
     29391.37	0.12478	1892530.0	1423715.0	713184.0	0.284645	0.691285
     29391.87	0.11134	1684272.0	1266942.0	634858.0	0.284727	0.690960
     29392.36	0.12755	1920905.0	1444840.0	724561.0	0.284798	0.690188
     29392.86	0.13482	2035729.0	1531826.0	768206.0	0.284393	0.690158
     29393.36	0.12003	1819627.0	1368543.0	686628.0	0.284885	0.689709
     29393.85	0.12496	1892016.0	1423047.0	714646.0	0.284843	0.688768
     29394.35	0.13306	2000153.0	1504330.0	755213.0	0.284876	0.689103
     29394.85	0.12219	1853388.0	1394176.0	700288.0	0.284712	0.688567
     29395.34	0.11935	1780094.0	1339265.0	673305.0	0.284545	0.687678
     29395.84	0.12886	1931758.0	1453230.0	730744.0	0.284642	0.687481
     29396.34	0.12248	1843537.0	1387011.0	697676.0	0.284535	0.687152
     29396.83	0.12789	1918953.0	1443703.0	726162.0	0.284568	0.687193
     29397.33	0.12219	1850820.0	1392521.0	700771.0	0.284513	0.686690
     29397.83	0.12193	1836729.0	1381697.0	695500.0	0.284674	0.686437
     29398.33	0.13132	1980492.0	1489805.0	750354.0	0.284700	0.685855
     29398.82	0.12367	1864751.0	1403300.0	706649.0	0.284301	0.686048
     29399.32	0.11183	1688981.0	1270819.0	639939.0	0.284464	0.686044
     29399.82	0.11796	1781855.0	1340854.0	675286.0	0.284348	0.685926
     29400.31	0.11524	1740334.0	1309684.0	660152.0	0.284291	0.685071
     29400.81	0.12044	1829195.0	1376688.0	693732.0	0.284195	0.685350
     29401.31	0.12921	1959371.0	1474732.0	743276.0	0.284147	0.685164
     29401.80	0.12515	1890060.0	1422048.0	717218.0	0.284510	0.684474
     29402.30	0.11745	1781607.0	1340775.0	675938.0	0.284268	0.684902
     29402.80	0.13961	2112629.0	1589883.0	801793.0	0.284273	0.684565
     29403.30	0.11970	1787312.0	1345181.0	678328.0	0.284184	0.684653
     29403.79	0.13659	2051561.0	1544142.0	778864.0	0.284133	0.684387
     29404.29	0.12007	1811676.0	1363657.0	687718.0	0.284082	0.684546
     29404.79	0.13081	1979806.0	1490148.0	751652.0	0.284123	0.684357
     29405.29	0.12826	1941770.0	1461532.0	737479.0	0.284115	0.684003
     29405.78	0.12811	1940459.0	1460731.0	737242.0	0.283988	0.683776
     29406.28	0.13175	1991972.0	1499803.0	756594.0	0.283791	0.684262
     29406.78	0.11960	1812374.0	1364700.0	688766.0	0.283703	0.683788
     29407.27	0.12192	1842536.0	1387019.0	699745.0	0.283986	0.684196
     29407.77	0.12690	1908390.0	1436835.0	724927.0	0.283817	0.684127
     29408.27	0.12542	1900783.0	1430997.0	722005.0	0.283895	0.684095
     29408.77	0.12849	1939211.0	1459953.0	736479.0	0.283877	0.684279
     29409.26	0.12984	1959765.0	1475647.0	744413.0	0.283728	0.684256
     29409.76	0.12354	1851466.0	1394401.0	703346.0	0.283513	0.684371
     29410.26	0.14472	2179163.0	1640911.0	827823.0	0.283689	0.684207
     29410.76	0.12596	1894472.0	1426684.0	719804.0	0.283587	0.684129
     29411.25	0.13218	1994343.0	1501783.0	757633.0	0.283662	0.684209
     29411.75	0.12063	1816513.0	1368088.0	689719.0	0.283505	0.684885
     29412.25	0.13760	2082618.0	1568423.0	790961.0	0.283555	0.684577
     29412.75	0.11659	1763506.0	1328301.0	669772.0	0.283403	0.684719
     29413.24	0.13490	2037444.0	1534315.0	773451.0	0.283612	0.684977
     29413.74	0.11821	1780223.0	1340993.0	676028.0	0.283328	0.684931
     29414.24	0.12800	1929453.0	1453422.0	732793.0	0.283316	0.684813
     29414.74	0.13078	1967656.0	1481964.0	747028.0	0.283475	0.685021
     29415.23	0.13257	1998721.0	1505881.0	758830.0	0.283129	0.685356
     29415.73	0.11300	1712811.0	1290739.0	650375.0	0.282921	0.685421
     29416.23	0.11904	1795715.0	1353270.0	681605.0	0.282879	0.685829
     29416.73	0.12045	1822854.0	1373984.0	692086.0	0.282689	0.685760
     29417.22	0.11951	1803330.0	1359382.0	684753.0	0.282605	0.685727
     29417.72	0.12024	1820622.0	1371803.0	690821.0	0.283052	0.686000
     29418.22	0.11702	1759994.0	1326227.0	667949.0	0.282972	0.685882
     29418.72	0.11342	1708766.0	1288098.0	648810.0	0.282605	0.685782
     29419.22	0.13276	1987089.0	1497519.0	754332.0	0.282861	0.685732
     29419.71	0.10045	1506749.0	1135550.0	571713.0	0.282837	0.686235
     29420.21	0.11547	1750707.0	1319477.0	663950.0	0.282784	0.686784
     29420.71	0.12140	1837076.0	1384937.0	696908.0	0.282521	0.686757
     29421.21	0.11460	1731679.0	1305597.0	656737.0	0.282431	0.687132
     29421.70	0.12246	1846770.0	1392213.0	700424.0	0.282544	0.686964
     29422.20	0.12913	1944903.0	1466199.0	737850.0	0.282539	0.686688
     29422.70	0.13281	1994690.0	1503833.0	756309.0	0.282471	0.687322
     29423.20	0.13203	1986641.0	1497988.0	753814.0	0.282322	0.686733
     29423.70	0.13407	2023726.0	1526008.0	767941.0	0.282285	0.686698
     29424.19	0.11569	1740255.0	1312466.0	660260.0	0.282124	0.687029
     29424.69	0.12440	1873364.0	1412531.0	710622.0	0.282353	0.686998
     29425.19	0.12979	1956789.0	1475551.0	742221.0	0.282273	0.687140
     29425.69	0.13615	2048248.0	1544718.0	777018.0	0.282143	0.687133
     29426.19	0.12493	1883124.0	1420172.0	713998.0	0.282154	0.687653
     29426.68	0.13408	2005852.0	1512610.0	760976.0	0.282232	0.686990
     29427.18	0.13624	2041367.0	1539915.0	774577.0	0.281892	0.687165
     29427.68	0.12823	1929724.0	1455752.0	732528.0	0.281854	0.686776
     29428.18	0.11896	1785943.0	1347301.0	677877.0	0.281843	0.686893
     29428.68	0.12267	1844652.0	1391477.0	700147.0	0.281925	0.686831
     29429.17	0.13224	1985293.0	1497566.0	753539.0	0.281925	0.686816
     29429.67	0.14177	2134199.0	1610358.0	810112.0	0.281635	0.687039
     29430.17	0.14121	2121489.0	1600484.0	805590.0	0.281812	0.686486
     29430.67	0.12539	1879539.0	1417910.0	713555.0	0.281843	0.686680
     29431.17	0.13755	2060228.0	1554684.0	782792.0	0.281544	0.686161
     29431.66	0.12451	1849345.0	1395583.0	702515.0	0.281519	0.686401
     29432.16	0.13689	2047389.0	1545377.0	777754.0	0.281297	0.686613
     29432.66	0.12646	1894902.0	1430100.0	719782.0	0.281423	0.686551
     29433.16	0.12272	1830957.0	1381720.0	695978.0	0.281510	0.685766
     29433.66	0.12598	1867933.0	1409968.0	710460.0	0.281265	0.685410
     29434.16	0.12084	1804336.0	1361536.0	686066.0	0.281579	0.685395
     29434.65	0.13053	1951407.0	1472959.0	742252.0	0.281277	0.685340
     29435.15	0.11970	1773489.0	1338994.0	674790.0	0.281030	0.685272
     29435.65	0.12640	1883171.0	1421663.0	716483.0	0.281130	0.685228
     29436.15	0.12400	1855081.0	1400560.0	706216.0	0.281056	0.684706
     29436.65	0.12283	1831103.0	1382320.0	697160.0	0.281155	0.684504
     29437.15	0.12675	1901707.0	1435340.0	724173.0	0.281350	0.684127
     29437.64	0.12098	1812996.0	1368685.0	690644.0	0.281130	0.683981
     29438.14	0.12927	1903924.0	1437555.0	725556.0	0.280973	0.683761
     29438.64	0.11519	1707563.0	1289432.0	650750.0	0.280865	0.683832
     29439.14	0.12072	1784006.0	1347211.0	680473.0	0.280825	0.683004
     29439.64	0.11888	1778546.0	1342973.0	678416.0	0.280910	0.682880
     29440.14	0.11730	1755877.0	1325941.0	669740.0	0.280846	0.682988
     29440.63	0.12059	1797814.0	1357413.0	686060.0	0.280991	0.682371
     29441.13	0.11341	1674456.0	1264262.0	639347.0	0.281000	0.681796
     29441.63	0.14084	2080099.0	1570790.0	794440.0	0.280837	0.681696
     29442.13	0.11657	1729059.0	1306295.0	660787.0	0.280382	0.681519
     29442.63	0.13203	1975518.0	1491920.0	755035.0	0.280767	0.681055
     29443.13	0.13481	2018523.0	1524454.0	771850.0	0.280730	0.680601
     29443.63	0.11506	1710129.0	1291573.0	653980.0	0.280708	0.680539
     29444.12	0.13995	2073474.0	1565961.0	793516.0	0.280726	0.679781
     29444.62	0.13377	1977843.0	1494167.0	757357.0	0.280438	0.679489
     29445.12	0.10823	1613567.0	1218720.0	617874.0	0.280646	0.679272
     29445.62	0.13738	2055295.0	1552497.0	787123.0	0.280555	0.679235
     29446.12	0.11951	1780899.0	1345275.0	682681.0	0.280520	0.678326
     29446.62	0.12311	1835531.0	1386898.0	704048.0	0.280264	0.677978
     29447.12	0.12691	1893735.0	1430473.0	726560.0	0.280546	0.677439
     29447.62	0.12349	1828330.0	1381345.0	701505.0	0.280345	0.677585
     29448.11	0.12496	1856091.0	1402419.0	712351.0	0.280274	0.677383
     29448.61	0.13502	2007506.0	1516747.0	771335.0	0.280325	0.676200
     29449.11	0.12250	1835103.0	1386672.0	704777.0	0.280194	0.676780
     29449.61	0.11970	1788830.0	1351681.0	687912.0	0.280213	0.675443
     29450.11	0.14191	2100009.0	1586999.0	807660.0	0.280097	0.675459
     29450.61	0.12310	1833926.0	1385552.0	705420.0	0.280360	0.675061
     29451.11	0.12993	1937448.0	1464067.0	745598.0	0.280153	0.674787
     29451.61	0.12881	1902828.0	1437859.0	732845.0	0.280186	0.673976
     29452.10	0.12952	1935230.0	1462602.0	745357.0	0.280009	0.674109
     29452.60	0.12516	1856025.0	1402702.0	715542.0	0.280037	0.673115
     29453.10	0.13053	1951250.0	1475083.0	752621.0	0.279756	0.672908
     29453.60	0.13265	1977720.0	1494770.0	762816.0	0.279972	0.672711
     29454.10	0.12394	1832529.0	1385141.0	707178.0	0.279895	0.672275
     29454.60	0.12305	1816409.0	1372671.0	701426.0	0.280103	0.671398
     29455.10	0.13383	1984966.0	1500069.0	766949.0	0.280091	0.670846
     29455.60	0.11041	1633760.0	1234829.0	631523.0	0.279952	0.670553
     29456.10	0.12361	1839120.0	1390381.0	710947.0	0.279709	0.670735
     29456.59	0.12003	1768688.0	1337156.0	683990.0	0.279693	0.670357
     29457.09	0.11922	1761246.0	1331302.0	681378.0	0.279864	0.669795
     29457.59	0.12712	1874970.0	1417466.0	725872.0	0.279722	0.669252
     29458.09	0.12353	1813446.0	1370761.0	702081.0	0.279863	0.669073
     29458.59	0.11314	1670024.0	1263042.0	646971.0	0.279315	0.668977
     29459.09	0.12463	1838702.0	1390301.0	712324.0	0.279540	0.668743
     29459.59	0.10536	1558292.0	1177978.0	603877.0	0.279791	0.668184
     29460.09	0.10990	1627860.0	1230862.0	631529.0	0.279552	0.667326
     29460.59	0.11841	1733089.0	1310912.0	672418.0	0.279182	0.667598
     29461.09	0.12185	1791437.0	1354638.0	695325.0	0.279484	0.666910
     29461.59	0.11741	1736404.0	1313229.0	674361.0	0.279327	0.666479
     29462.09	0.13976	2072585.0	1567792.0	805249.0	0.279128	0.666272
     29462.58	0.12204	1799697.0	1360994.0	699214.0	0.279403	0.666014
     29463.08	0.15719	2335260.0	1766459.0	907655.0	0.279146	0.665868
     29463.58	0.10923	1609283.0	1216787.0	625921.0	0.279575	0.664745
     29464.08	0.11778	1726801.0	1306427.0	671425.0	0.278975	0.665649
     29464.58	0.13363	1969519.0	1489898.0	766590.0	0.279082	0.664511
     29465.08	0.13427	1972300.0	1491974.0	768098.0	0.279100	0.663938
     29465.58	0.12582	1859623.0	1406819.0	723929.0	0.279043	0.664393
     29466.08	0.14000	2066916.0	1563871.0	805525.0	0.278893	0.663425
     29466.58	0.15771	2330530.0	1763411.0	908053.0	0.278846	0.663703
     29467.08	0.12959	1912912.0	1447205.0	745632.0	0.278993	0.663157
     29467.58	0.10122	1481417.0	1120912.0	577648.0	0.278856	0.662933
     29468.08	0.11337	1664400.0	1259205.0	648917.0	0.278984	0.662931
     29468.58	0.13109	1899164.0	1436808.0	740478.0	0.278990	0.662883
     29469.08	0.13562	1988053.0	1504571.0	775806.0	0.278648	0.662361
     29469.58	0.13802	2045215.0	1547591.0	797963.0	0.278803	0.662393
     29470.07	0.13639	2000965.0	1514409.0	781244.0	0.278604	0.661893
     29470.57	0.15947	2366642.0	1790780.0	923762.0	0.278821	0.661952
     29471.07	0.11202	1650059.0	1248381.0	644204.0	0.278964	0.661587
     29471.57	0.11637	1702142.0	1288437.0	665151.0	0.278458	0.661171
     29472.07	0.12870	1899610.0	1437759.0	742206.0	0.278563	0.661214
     29472.57	0.12564	1863380.0	1410827.0	728572.0	0.278216	0.660845
     29473.07	0.13091	1934561.0	1464489.0	755905.0	0.278374	0.661346
     29473.57	0.12393	1815965.0	1374403.0	710019.0	0.278598	0.660483
     29474.07	0.12800	1884564.0	1426589.0	736880.0	0.278410	0.660617
     29474.57	0.14725	2172735.0	1644655.0	849670.0	0.278456	0.660438
     29475.07	0.10746	1582993.0	1198536.0	618866.0	0.278217	0.660967
     29475.57	0.11301	1667299.0	1262616.0	652458.0	0.278019	0.660194
     29476.07	0.12242	1802982.0	1365186.0	705340.0	0.278151	0.660366
     29476.57	0.14216	2100307.0	1590284.0	821703.0	0.278171	0.660289
     29477.07	0.11650	1704312.0	1290629.0	667064.0	0.278032	0.659999
     29477.57	0.11603	1716704.0	1300108.0	672139.0	0.277959	0.659737
     29478.07	0.12591	1859916.0	1408614.0	728582.0	0.277925	0.659261
     29478.57	0.11670	1708254.0	1293773.0	668533.0	0.277909	0.660232
     29479.07	0.12559	1851996.0	1403077.0	725192.0	0.277596	0.659987
     29479.57	0.11363	1666910.0	1262681.0	652713.0	0.277734	0.659855
     29480.07	0.12108	1792724.0	1357982.0	701767.0	0.277736	0.660154
     29480.57	0.12629	1867354.0	1414215.0	731183.0	0.277948	0.659666
     29481.07	0.12357	1805006.0	1367074.0	706872.0	0.277891	0.659578
     29481.57	0.11484	1671953.0	1266534.0	654686.0	0.277708	0.659884
     29482.07	0.14009	2059037.0	1559839.0	806859.0	0.277656	0.659189
     29482.57	0.13235	1947162.0	1475127.0	762756.0	0.277629	0.659561
     29483.07	0.11684	1694981.0	1284185.0	663963.0	0.277547	0.659653
     29483.57	0.13188	1924885.0	1458904.0	754148.0	0.277181	0.659852
     29484.07	0.12222	1791953.0	1357801.0	702073.0	0.277440	0.659584
     29484.57	0.13598	2005130.0	1519036.0	785303.0	0.277633	0.659762
     29485.07	0.12453	1835587.0	1391190.0	719033.0	0.277205	0.660008
     29485.57	0.12141	1778791.0	1348118.0	697099.0	0.277224	0.659537
     29486.07	0.13480	1977703.0	1498596.0	774873.0	0.277407	0.659585
     29486.57	0.12382	1789297.0	1355943.0	700866.0	0.277326	0.659936
     29487.07	0.10376	1524230.0	1155116.0	597189.0	0.277289	0.659722
     29487.57	0.13363	1945061.0	1473859.0	762371.0	0.277409	0.659206
     29488.07	0.12384	1805482.0	1368248.0	707311.0	0.277297	0.659816
     29488.57	0.12937	1884265.0	1428197.0	738125.0	0.277125	0.660055
     29489.07	0.13250	1951554.0	1479312.0	764901.0	0.277049	0.659586
     29489.57	0.13645	2013529.0	1526612.0	788871.0	0.276838	0.660203
     29490.07	0.15825	2343680.0	1776517.0	918328.0	0.277068	0.659855
     29490.57	0.11397	1668785.0	1264937.0	653784.0	0.277073	0.660001
     29491.07	0.10473	1529243.0	1159749.0	599262.0	0.276569	0.660260
     29491.57	0.13341	1966165.0	1490590.0	770304.0	0.276913	0.660142
     29492.07	0.12357	1801131.0	1365883.0	705843.0	0.276614	0.660164
     29492.57	0.13135	1909431.0	1448266.0	748591.0	0.276438	0.659929
     29493.07	0.12510	1828702.0	1386868.0	716437.0	0.276558	0.660513
     29493.57	0.12831	1890405.0	1433464.0	740675.0	0.276697	0.660287
     29494.07	0.12902	1891053.0	1433951.0	741114.0	0.276700	0.660034
     29494.57	0.11989	1767074.0	1340412.0	692710.0	0.276348	0.660121
     29495.07	0.12989	1919550.0	1455906.0	752212.0	0.276462	0.660365
     29495.57	0.11250	1665123.0	1262981.0	652674.0	0.276424	0.660152
     29496.07	0.12487	1831989.0	1389579.0	717975.0	0.276401	0.660321
     29496.57	0.11697	1732564.0	1314242.0	678964.0	0.276342	0.660447
     29497.07	0.13303	1949179.0	1478359.0	764051.0	0.276476	0.660053
     29497.57	0.12320	1821540.0	1381683.0	714065.0	0.276380	0.660084
     29498.07	0.11336	1664735.0	1263107.0	652858.0	0.276091	0.659970
     29498.57	0.097664	1437248.0	1090347.0	563632.0	0.276234	0.659850
     29499.07	0.10778	1598700.0	1213041.0	626720.0	0.276060	0.660386
     29499.57	0.12534	1831712.0	1389871.0	718441.0	0.276040	0.659883
     29500.07	0.12463	1831353.0	1389131.0	718073.0	0.276377	0.659862
     29500.58	0.12732	1865872.0	1416051.0	731971.0	0.275856	0.659886
     29501.08	0.13113	1927900.0	1462526.0	755932.0	0.276266	0.659969
     29501.58	0.11843	1737208.0	1318726.0	681689.0	0.275613	0.659848
     29502.08	0.12425	1820744.0	1381856.0	714261.0	0.275818	0.659934
     29502.58	0.12751	1879965.0	1426832.0	737503.0	0.275797	0.659942
     29503.08	0.12508	1811798.0	1375256.0	710783.0	0.275680	0.660028
     29503.58	0.13300	1935096.0	1468805.0	759336.0	0.275708	0.659760
     29504.08	0.13706	2001426.0	1519051.0	785526.0	0.275774	0.659488
     29504.58	0.13388	1935312.0	1468966.0	759845.0	0.275710	0.659200
     29505.08	0.13266	1908087.0	1448371.0	749161.0	0.275662	0.659241
     29505.58	0.15069	2204568.0	1673478.0	865466.0	0.275627	0.659391
     29506.08	0.13314	1941025.0	1473716.0	762276.0	0.275429	0.659234
     29506.58	0.11790	1712521.0	1300375.0	672993.0	0.275314	0.658673
     29507.08	0.11271	1633424.0	1240438.0	641824.0	0.275214	0.658906
     29507.58	0.11972	1732788.0	1315955.0	680753.0	0.275169	0.659118
     29508.09	0.13996	2045297.0	1552956.0	803625.0	0.275383	0.658783
     29508.59	0.17614	2571727.0	1952878.0	1010284.0	0.275273	0.659073
     29509.09	0.13822	2009293.0	1525686.0	789967.0	0.275339	0.658208
     29509.59	0.18383	2670127.0	2027728.0	1049489.0	0.275210	0.658613
     29510.09	0.069116	1005730.0	764057.0	395650.0	0.274827	0.658112
     29510.59	0.090371	1311182.0	996135.0	515815.0	0.274802	0.658135
     29511.09	0.13401	1960563.0	1489094.0	771071.0	0.275064	0.658143
     29511.59	0.12481	1835008.0	1393751.0	722048.0	0.275050	0.657662
     29512.09	0.12920	1887419.0	1433945.0	742926.0	0.274781	0.657588
     29512.59	0.12699	1852785.0	1407718.0	729676.0	0.274720	0.657125
     29513.09	0.11959	1741881.0	1322932.0	685794.0	0.275115	0.657028
     29513.60	0.12777	1878868.0	1427486.0	739814.0	0.274755	0.657271
     29514.10	0.11808	1728597.0	1313561.0	681130.0	0.274568	0.656744
     29514.60	0.12511	1818410.0	1381479.0	716417.0	0.274808	0.656648
     29515.10	0.13207	1940729.0	1474473.0	764949.0	0.274763	0.656247
     29515.60	0.12047	1767985.0	1343220.0	696939.0	0.274771	0.656127
     29516.10	0.12953	1876680.0	1426188.0	740428.0	0.274499	0.655532
     29516.60	0.11939	1745332.0	1326100.0	688314.0	0.274702	0.655752
     29517.10	0.11602	1683522.0	1279275.0	664019.0	0.274595	0.655738
     29517.60	0.12255	1782404.0	1354480.0	703450.0	0.274545	0.655176
     29518.10	0.11974	1747737.0	1328254.0	690057.0	0.274457	0.654846
     29518.61	0.11972	1736505.0	1319785.0	685713.0	0.274406	0.654765
     29519.11	0.12467	1834618.0	1394179.0	724387.0	0.274531	0.654735
     29519.61	0.11816	1739798.0	1322555.0	687187.0	0.274204	0.654714
     29520.11	0.12637	1851004.0	1406560.0	731687.0	0.274581	0.653549
     29520.61	0.11883	1732429.0	1316845.0	684754.0	0.274286	0.653934
     29521.11	0.14178	2051310.0	1559128.0	811174.0	0.274352	0.653399
     29521.61	0.12237	1801883.0	1369340.0	712611.0	0.274503	0.653148
     29522.11	0.12796	1863421.0	1416283.0	737493.0	0.274378	0.652535
     29522.62	0.13388	1954129.0	1485668.0	773445.0	0.274080	0.652765
     29523.12	0.12631	1839678.0	1398416.0	728255.0	0.274250	0.652444
     29523.62	0.12689	1833287.0	1393981.0	726227.0	0.273947	0.652056
     29524.12	0.12866	1885125.0	1433283.0	746430.0	0.274027	0.652421
     29524.62	0.12116	1760887.0	1338466.0	697772.0	0.274293	0.651387
     29525.12	0.12499	1783896.0	1356343.0	706943.0	0.274008	0.651597
     29525.62	0.11764	1714216.0	1303334.0	679671.0	0.274030	0.651072
     29526.12	0.12624	1818870.0	1382647.0	721139.0	0.274216	0.650923
     29526.63	0.12404	1811868.0	1377510.0	718807.0	0.274081	0.650440
     29527.13	0.13421	1934124.0	1470627.0	767684.0	0.273966	0.650066
     29527.63	0.11883	1732030.0	1316984.0	687756.0	0.273950	0.649665
     29528.13	0.13798	1996989.0	1518427.0	793211.0	0.273966	0.649341
     29528.63	0.12346	1801255.0	1369796.0	715851.0	0.273822	0.648945
     29529.13	0.13591	1978204.0	1504266.0	785841.0	0.273884	0.649306
     29529.64	0.12204	1775037.0	1349920.0	705663.0	0.273776	0.648663
     29530.14	0.14081	2045228.0	1555428.0	813322.0	0.273759	0.648379
     29530.64	0.11709	1703674.0	1295456.0	677526.0	0.273924	0.648170
     29531.14	0.12989	1884405.0	1433372.0	750048.0	0.273582	0.647648
     29531.64	0.12857	1863440.0	1417345.0	741543.0	0.273639	0.647808
     29532.14	0.12148	1769178.0	1345738.0	704605.0	0.273572	0.647060
     29532.64	0.12982	1902240.0	1446727.0	757567.0	0.273728	0.646947
     29533.15	0.11535	1694720.0	1289558.0	675531.0	0.273218	0.646556
     29533.65	0.13426	1979838.0	1506214.0	789031.0	0.273416	0.646549
     29534.15	0.12007	1739823.0	1323771.0	694105.0	0.273299	0.645617
     29534.65	0.11588	1693708.0	1288239.0	675306.0	0.273644	0.645866
     29535.15	0.12745	1864461.0	1418487.0	744027.0	0.273381	0.645269
     29535.65	0.11767	1725631.0	1312772.0	688526.0	0.273452	0.645343
     29536.16	0.12036	1765209.0	1343471.0	704812.0	0.273013	0.645081
     29536.66	0.11299	1659722.0	1262677.0	662667.0	0.273416	0.644717
     29537.16	0.10703	1575719.0	1198893.0	629420.0	0.273313	0.644355
     29537.66	0.11652	1726529.0	1313891.0	689856.0	0.273120	0.644265
     29538.16	0.11274	1663257.0	1265446.0	664735.0	0.273353	0.643791
     29538.67	0.12400	1824264.0	1388100.0	729529.0	0.273241	0.643292
     29539.17	0.13208	1948104.0	1482123.0	778833.0	0.273381	0.643434
     29539.67	0.11733	1735401.0	1320536.0	694576.0	0.273201	0.642491
     29540.17	0.13694	2021006.0	1537805.0	808515.0	0.273239	0.642912
     29540.67	0.10570	1559706.0	1187059.0	624201.0	0.273019	0.642762
     29541.17	0.12938	1909617.0	1453480.0	764684.0	0.272942	0.642253
     29541.68	0.13951	2063655.0	1570178.0	826499.0	0.273290	0.641746
     29542.18	0.12748	1874507.0	1426839.0	751311.0	0.272884	0.641397
     29542.68	0.13884	2051792.0	1561683.0	822125.0	0.272949	0.641627
     29543.18	0.12853	1900472.0	1446757.0	761825.0	0.272778	0.641363
     29543.68	0.13480	1998654.0	1521372.0	801234.0	0.272861	0.641215
     29544.19	0.14481	2139952.0	1629080.0	858066.0	0.272768	0.641090
     29544.69	0.10218	1504582.0	1145414.0	603668.0	0.272749	0.640497
     29545.19	0.11864	1751639.0	1333698.0	702980.0	0.272596	0.640382
     29545.69	0.13353	1975812.0	1504031.0	793288.0	0.272831	0.639718
     29546.19	0.13527	2001943.0	1524341.0	804023.0	0.272556	0.639690
     29546.70	0.14003	2064814.0	1571978.0	829180.0	0.272705	0.639653
     29547.20	0.13309	1970431.0	1500368.0	791669.0	0.272542	0.639322
     29547.70	0.16209	2385000.0	1816296.0	958099.0	0.272400	0.639603
     29548.20	0.10395	1521882.0	1158966.0	611932.0	0.272419	0.638662
     29548.71	0.11624	1707021.0	1299903.0	686340.0	0.272460	0.638672
     29549.21	0.13908	2056068.0	1565774.0	826788.0	0.272415	0.638587
     29549.71	0.12942	1913593.0	1457618.0	769689.0	0.272179	0.638572
     29550.21	0.12708	1876480.0	1429100.0	754697.0	0.272353	0.638484
     29550.71	0.12889	1907751.0	1453171.0	767421.0	0.272177	0.638468
     29551.22	0.12874	1899678.0	1447098.0	764646.0	0.272124	0.637902
     29551.72	0.12056	1775123.0	1352018.0	714838.0	0.272271	0.637298
     29552.22	0.12792	1893352.0	1442269.0	762252.0	0.272131	0.637696
     29552.72	0.11826	1745486.0	1329631.0	703143.0	0.272132	0.637096
     29553.23	0.12825	1894005.0	1443129.0	763180.0	0.271880	0.637075
     29553.73	0.12592	1860802.0	1417452.0	749579.0	0.272147	0.637104
     29554.23	0.12683	1868841.0	1423871.0	752840.0	0.271939	0.637282
     29554.73	0.12509	1835717.0	1398824.0	740024.0	0.271803	0.636705
     29555.24	0.12671	1866790.0	1422334.0	752502.0	0.271921	0.636651
     29555.74	0.12336	1820517.0	1387336.0	734085.0	0.271735	0.636516
     29556.24	0.11513	1695921.0	1292577.0	684280.0	0.271588	0.636026
     29556.74	0.11908	1751929.0	1334781.0	706886.0	0.271950	0.635653
     29557.24	0.12614	1857690.0	1415601.0	749324.0	0.271780	0.636138
     29557.75	0.12244	1810756.0	1380003.0	730652.0	0.271659	0.635904
     29558.25	0.11595	1718307.0	1309529.0	693405.0	0.271672	0.635809
     29558.75	0.11570	1704855.0	1299608.0	688064.0	0.271417	0.635936
     29559.26	0.13487	1993696.0	1519607.0	804655.0	0.271538	0.635793
     29559.76	0.12610	1859868.0	1417680.0	750717.0	0.271484	0.635748
     29560.26	0.11506	1688377.0	1287066.0	681864.0	0.271403	0.635290
     29560.76	0.14515	2139613.0	1631211.0	864029.0	0.271302	0.635472
     29561.27	0.12058	1777390.0	1354888.0	717727.0	0.271427	0.635385
     29561.77	0.13360	1974618.0	1505311.0	797791.0	0.271375	0.634908
     29562.27	0.13806	2024120.0	1543183.0	817563.0	0.271288	0.635274
     29562.77	0.12165	1788532.0	1363732.0	722318.0	0.271170	0.635515
     29563.28	0.16473	2429218.0	1851885.0	981445.0	0.271365	0.634933
     29563.78	0.091800	1354911.0	1032978.0	547600.0	0.271290	0.634656
     29564.28	0.088923	1309380.0	998378.0	529294.0	0.271177	0.634588
     29564.78	0.13095	1930535.0	1472193.0	780122.0	0.271044	0.635058
     29565.29	0.13612	1998421.0	1523586.0	807920.0	0.271291	0.634359
     29565.79	0.12663	1863143.0	1420446.0	753135.0	0.271294	0.634482
     29566.29	0.12755	1868848.0	1425048.0	755567.0	0.271117	0.634492
     29566.80	0.13686	2015872.0	1537252.0	814853.0	0.271055	0.634744
     29567.30	0.13365	1965649.0	1498977.0	794717.0	0.271040	0.634552
     29567.80	0.12888	1879177.0	1433249.0	760209.0	0.270890	0.634106
     29568.30	0.12222	1794541.0	1368736.0	725884.0	0.270862	0.634253
     29568.81	0.13227	1950170.0	1487399.0	788485.0	0.270888	0.634671
     29569.31	0.12452	1826786.0	1392951.0	738832.0	0.271134	0.634109
     29569.81	0.13116	1936905.0	1477204.0	783624.0	0.270940	0.633977
     29570.32	0.12243	1789625.0	1364851.0	724211.0	0.270961	0.633718
     29570.82	0.13138	1928720.0	1470805.0	780162.0	0.271047	0.634064
     29571.32	0.13049	1915468.0	1461293.0	774886.0	0.270640	0.634361
     29571.82	0.11816	1718727.0	1311229.0	695503.0	0.270619	0.634085
     29572.33	0.11885	1748411.0	1333549.0	707805.0	0.270864	0.633430
     29572.83	0.13000	1903586.0	1451886.0	770514.0	0.270876	0.633561
     29573.33	0.11908	1736723.0	1324425.0	703068.0	0.271022	0.633280
     29573.84	0.12959	1888194.0	1440550.0	764740.0	0.270596	0.633244
     29574.34	0.12157	1773418.0	1353116.0	717960.0	0.270499	0.633752
     29574.84	0.12704	1845923.0	1408401.0	747604.0	0.270524	0.633337
     29575.35	0.11499	1671376.0	1275352.0	676847.0	0.270425	0.633532
     29575.85	0.11587	1669105.0	1273550.0	676173.0	0.270479	0.633115
     29576.35	0.10735	1552272.0	1184363.0	628813.0	0.270515	0.633126
     29576.85	0.12182	1768579.0	1349575.0	716390.0	0.270387	0.633320
     29577.36	0.11949	1750108.0	1335510.0	709027.0	0.270364	0.633175
     29577.86	0.11641	1694407.0	1293164.0	686387.0	0.270241	0.633406
     29578.36	0.11022	1608936.0	1228197.0	652202.0	0.270026	0.632948
     29578.87	0.12909	1856952.0	1417391.0	752662.0	0.270119	0.632957
     29579.37	0.11832	1719360.0	1312255.0	696848.0	0.270205	0.632935
     29579.87	0.14291	2079726.0	1587494.0	842816.0	0.270079	0.633163
     29580.38	0.11978	1745756.0	1332635.0	707517.0	0.270030	0.633152
     29580.88	0.11472	1659415.0	1266586.0	672575.0	0.270140	0.632967
     29581.38	0.12718	1844821.0	1408475.0	747822.0	0.269875	0.633098
     29581.89	0.14197	2056705.0	1570207.0	834164.0	0.269898	0.632533
     29582.39	0.12576	1842708.0	1406810.0	747267.0	0.269911	0.632657
     29582.89	0.14486	2117544.0	1616644.0	858707.0	0.269905	0.632680
     29583.40	0.11862	1742228.0	1330273.0	706409.0	0.269781	0.632945
     29583.90	0.14278	2100429.0	1603688.0	851827.0	0.269836	0.632678
     29584.40	0.11860	1730206.0	1321085.0	702039.0	0.269787	0.632220
     29584.91	0.11925	1746306.0	1333944.0	708711.0	0.269363	0.632447
     29585.41	0.13655	1993826.0	1522401.0	809056.0	0.269767	0.632176
     29585.91	0.12581	1837838.0	1403245.0	745628.0	0.269802	0.632316
     29586.42	0.13302	1940352.0	1482236.0	787805.0	0.269318	0.632056
     29586.92	0.13752	1995486.0	1524061.0	810209.0	0.269509	0.631842
     29587.42	0.13474	1966627.0	1501930.0	798179.0	0.269569	0.632173
     29587.93	0.14753	2129266.0	1626397.0	864558.0	0.269410	0.631904
     29588.43	0.11668	1701854.0	1299681.0	690798.0	0.269599	0.632027
     29588.93	0.12936	1884084.0	1439106.0	765010.0	0.269420	0.631888
     29589.44	0.12755	1854812.0	1417160.0	753681.0	0.269128	0.631441
     29589.94	0.12505	1823121.0	1392372.0	740392.0	0.269541	0.631584
     29590.45	0.13095	1907320.0	1457151.0	775189.0	0.269216	0.631132
     29590.95	0.13972	2024044.0	1546218.0	822604.0	0.269286	0.631092
     29591.45	0.11515	1668886.0	1274867.0	678394.0	0.269314	0.630869
     29591.96	0.13544	1976516.0	1510055.0	803325.0	0.269190	0.631142
     29592.46	0.11033	1612203.0	1231984.0	655056.0	0.268976	0.631660
     29592.96	0.12323	1795018.0	1371483.0	730132.0	0.269122	0.630423
     29593.47	0.13239	1933594.0	1477656.0	786587.0	0.268923	0.630509
     29593.97	0.13388	1961096.0	1498617.0	797598.0	0.268961	0.630693
     29594.48	0.12110	1768580.0	1351487.0	719146.0	0.268971	0.630896
     29594.98	0.12156	1778232.0	1358865.0	723487.0	0.268970	0.630322
     29595.48	0.13008	1897088.0	1450128.0	772069.0	0.268668	0.630333
     29595.99	0.11606	1702207.0	1300818.0	692472.0	0.268932	0.630481
     29596.49	0.11992	1750745.0	1337737.0	712445.0	0.269062	0.630032
     29596.99	0.12021	1758590.0	1344478.0	715956.0	0.268507	0.630142
     29597.50	0.11394	1670167.0	1276667.0	680125.0	0.268671	0.629731
     29598.00	0.12925	1890867.0	1445211.0	770334.0	0.268780	0.629186
     29598.51	0.11839	1716532.0	1312353.0	699114.0	0.268484	0.629763
     29599.01	0.12904	1887429.0	1443018.0	769105.0	0.268479	0.629265
     29599.51	0.12074	1759657.0	1345117.0	717110.0	0.268638	0.629007
     29600.02	0.12316	1804462.0	1379517.0	735380.0	0.268529	0.629101
     29600.52	0.12625	1855133.0	1418219.0	756370.0	0.268555	0.628626
     29601.03	0.12342	1794215.0	1372217.0	731547.0	0.268140	0.629021
     29601.53	0.13293	1937264.0	1481820.0	790225.0	0.268006	0.628709
     29602.03	0.12866	1881293.0	1438384.0	767142.0	0.268439	0.628604
     29602.54	0.12913	1868041.0	1428758.0	762097.0	0.268085	0.628487
     29603.04	0.13096	1901366.0	1453765.0	775764.0	0.268416	0.628064
     29603.55	0.12047	1759677.0	1345899.0	718271.0	0.268068	0.627971
     29604.05	0.13224	1919519.0	1467994.0	783805.0	0.268178	0.627492
     29604.55	0.12830	1871081.0	1431133.0	764251.0	0.268050	0.627325
     29605.06	0.12270	1789173.0	1368558.0	730543.0	0.267996	0.627725
     29605.56	0.12815	1855924.0	1419618.0	758318.0	0.267995	0.627040
     29606.07	0.13029	1898300.0	1452300.0	775592.0	0.267810	0.627277
     29606.57	0.12372	1807755.0	1382871.0	738613.0	0.267924	0.627143
     29607.07	0.12482	1814969.0	1388680.0	742006.0	0.267715	0.626752
     29607.58	0.12330	1802526.0	1378764.0	737019.0	0.268002	0.626329
     29608.08	0.13802	2021588.0	1546591.0	826739.0	0.267830	0.626319
     29608.59	0.12620	1840920.0	1408495.0	753158.0	0.267744	0.626002
     29609.09	0.12975	1869141.0	1430230.0	765065.0	0.267644	0.625630
     29609.60	0.12843	1875425.0	1435181.0	767536.0	0.267544	0.625861
     29610.10	0.13189	1930480.0	1477524.0	790396.0	0.267401	0.625589
     29610.60	0.12363	1803708.0	1380260.0	738512.0	0.267573	0.625390
     29611.11	0.12411	1802620.0	1379426.0	738434.0	0.267574	0.624891
     29611.61	0.12581	1828231.0	1398817.0	748775.0	0.267722	0.624944
     29612.12	0.12431	1805982.0	1382329.0	739977.0	0.267335	0.624906
     29612.62	0.13274	1930309.0	1477180.0	791162.0	0.267545	0.624387
     29613.13	0.11793	1712639.0	1310938.0	702060.0	0.267293	0.624479
     29613.63	0.12442	1813519.0	1388043.0	743795.0	0.267374	0.623885
     29614.13	0.11865	1729599.0	1323601.0	709375.0	0.267534	0.623727
     29614.64	0.13511	1957075.0	1497922.0	803118.0	0.267372	0.623332
     29615.14	0.12084	1755545.0	1344052.0	720284.0	0.267090	0.623799
     29615.65	0.11216	1635383.0	1252077.0	671160.0	0.267073	0.623551
     29616.15	0.11261	1639268.0	1255018.0	673055.0	0.267100	0.623078
     29616.66	0.11356	1655150.0	1266597.0	679383.0	0.267558	0.622904
     29617.16	0.12143	1763974.0	1350532.0	724571.0	0.267071	0.622674
     29617.67	0.10855	1579622.0	1209657.0	649117.0	0.266849	0.622479
     29618.17	0.12151	1760465.0	1347744.0	723468.0	0.267146	0.622131
     29618.68	0.11450	1665599.0	1275444.0	684969.0	0.266890	0.621676
     29619.18	0.12051	1739215.0	1331573.0	715236.0	0.267073	0.621504
     29619.68	0.12094	1738753.0	1331371.0	715272.0	0.266959	0.621302
     29620.19	0.13044	1901378.0	1456197.0	782442.0	0.266751	0.621164
     29620.69	0.12525	1822531.0	1396092.0	749929.0	0.266549	0.621454
     29621.20	0.11903	1731967.0	1326390.0	713050.0	0.266797	0.620665
     29621.70	0.14286	2082002.0	1594442.0	857294.0	0.266806	0.620498
     29622.21	0.13029	1887331.0	1445391.0	777387.0	0.266784	0.620197
     29622.71	0.12723	1841268.0	1410094.0	758604.0	0.266798	0.619932
     29623.22	0.13504	1960054.0	1501144.0	807151.0	0.266745	0.620472
     29623.72	0.11942	1737561.0	1331196.0	716330.0	0.266405	0.619692
     29624.23	0.12985	1889358.0	1447576.0	778554.0	0.266347	0.620207
     29624.73	0.12307	1791691.0	1372748.0	738549.0	0.266345	0.619882
     29625.24	0.12966	1880193.0	1440450.0	775797.0	0.266419	0.618820
     29625.74	0.13427	1951405.0	1494903.0	804958.0	0.266488	0.619026
     29626.25	0.12550	1815575.0	1390876.0	749162.0	0.266468	0.618734
     29626.75	0.13419	1930507.0	1479133.0	797139.0	0.266327	0.618182
     29627.26	0.13301	1935580.0	1483099.0	799232.0	0.266273	0.618238
     29627.76	0.14408	2083976.0	1596848.0	860497.0	0.266246	0.618277
     29628.27	0.11803	1719343.0	1317549.0	710252.0	0.266169	0.617909
     29628.77	0.12628	1824878.0	1398288.0	753998.0	0.266265	0.617614
     29629.28	0.14142	2051107.0	1571382.0	847379.0	0.266424	0.617563
     29629.78	0.12297	1787371.0	1369632.0	738777.0	0.266204	0.617301
     29630.28	0.13690	1989623.0	1524886.0	822899.0	0.266026	0.616841
     29630.79	0.12822	1860856.0	1426258.0	769668.0	0.265982	0.616850
     29631.29	0.12437	1801972.0	1381224.0	745473.0	0.265912	0.616706
     29631.80	0.12588	1820102.0	1395300.0	753076.0	0.265783	0.616699
     29632.31	0.12921	1877928.0	1439423.0	777269.0	0.265927	0.616211
     29632.81	0.12728	1849928.0	1418521.0	766284.0	0.265532	0.615817
     29633.32	0.11277	1643912.0	1260130.0	680893.0	0.265864	0.615565
     29633.82	0.13839	2012757.0	1542848.0	833410.0	0.265875	0.615860
     29634.33	0.11567	1680661.0	1288327.0	696528.0	0.265843	0.614992
     29634.83	0.13145	1916842.0	1469539.0	794266.0	0.265730	0.615286
     29635.34	0.13310	1939458.0	1486970.0	804276.0	0.265668	0.614553
     29635.84	0.11085	1608541.0	1232941.0	666657.0	0.265925	0.614882
     29636.35	0.13089	1901490.0	1458065.0	788488.0	0.265528	0.614748
     29636.85	0.11731	1698862.0	1302170.0	704159.0	0.265927	0.614783
     29637.36	0.12106	1763266.0	1351593.0	731480.0	0.265884	0.613969
     29637.86	0.12881	1874885.0	1437561.0	777988.0	0.265599	0.613992
     29638.37	0.11208	1626182.0	1246831.0	674710.0	0.265630	0.614077
     29638.87	0.12071	1750174.0	1341972.0	726366.0	0.265575	0.613841
     29639.38	0.11978	1743190.0	1336599.0	723550.0	0.265588	0.613714
     29639.88	0.11810	1712303.0	1312961.0	710988.0	0.265554	0.613385
     29640.39	0.13844	2007490.0	1539348.0	833939.0	0.265526	0.612954
     29640.89	0.11134	1608046.0	1233302.0	668058.0	0.265325	0.613075
     29641.40	0.11923	1732031.0	1328021.0	719589.0	0.265605	0.612765
     29641.90	0.14219	2076572.0	1592886.0	863082.0	0.265171	0.612793
     29642.41	0.12961	1884900.0	1445921.0	783543.0	0.265128	0.612676
     29642.91	0.12786	1858868.0	1425626.0	772986.0	0.265357	0.612105
     29643.42	0.12852	1860841.0	1427196.0	773888.0	0.265317	0.612040
     29643.93	0.12375	1795290.0	1377338.0	746574.0	0.265014	0.612413
     29644.43	0.13130	1911652.0	1466487.0	795163.0	0.265098	0.612078
     29644.94	0.12362	1795211.0	1377241.0	746824.0	0.265040	0.612008
     29645.44	0.11702	1687877.0	1294742.0	702557.0	0.265160	0.611340
     29645.95	0.12397	1794096.0	1376507.0	746459.0	0.264952	0.611964
     29646.45	0.12961	1884243.0	1445698.0	784211.0	0.264934	0.611669
     29646.96	0.12903	1870534.0	1435055.0	778721.0	0.265021	0.611306
     29647.46	0.12648	1839888.0	1411562.0	766410.0	0.265008	0.610735
     29647.97	0.12621	1829729.0	1403926.0	762253.0	0.264895	0.610749
     29648.48	0.14676	2134160.0	1637378.0	888602.0	0.264977	0.611202
     29648.98	0.11722	1707138.0	1310236.0	711577.0	0.264611	0.610479
     29649.49	0.12112	1739636.0	1334973.0	725190.0	0.264765	0.610233
     29649.99	0.13509	1954798.0	1500230.0	814708.0	0.264668	0.610544
     29650.50	0.12297	1784370.0	1369425.0	743821.0	0.264674	0.610346
     29651.00	0.13904	2020983.0	1551161.0	842399.0	0.264580	0.610505
     29651.51	0.12452	1801096.0	1382573.0	751066.0	0.264449	0.610208
     29652.02	0.14132	2051404.0	1574745.0	855425.0	0.264431	0.610250
     29652.52	0.15105	2181058.0	1674402.0	909676.0	0.264354	0.610123
     29653.03	0.10544	1523150.0	1169698.0	635595.0	0.264035	0.609939
     29653.53	0.11583	1677512.0	1287506.0	699859.0	0.264605	0.609583
     29654.04	0.12151	1764433.0	1354256.0	736076.0	0.264577	0.609674
     29654.54	0.12299	1783057.0	1368718.0	744104.0	0.264455	0.609449
     29655.05	0.12209	1777654.0	1364326.0	741973.0	0.264634	0.609103
     29655.56	0.13755	1997171.0	1533345.0	833439.0	0.264280	0.609646
     29656.06	0.11390	1649200.0	1266402.0	688453.0	0.264111	0.609488
     29656.57	0.15287	2217645.0	1702995.0	926027.0	0.264057	0.609240
     29657.07	0.095545	1390184.0	1067271.0	580304.0	0.264331	0.609308
     29657.58	0.099609	1447074.0	1110940.0	604304.0	0.264337	0.608884
     29658.09	0.11050	1597080.0	1226361.0	666996.0	0.264126	0.609022
     29658.59	0.11787	1704712.0	1309119.0	711738.0	0.264042	0.609400
     29659.10	0.11887	1722118.0	1322757.0	719542.0	0.263837	0.608859
     29659.60	0.12385	1793467.0	1377293.0	749161.0	0.264031	0.608921
     29660.11	0.11689	1693434.0	1300383.0	707488.0	0.264100	0.608693
     29660.62	0.13297	1937574.0	1488157.0	809601.0	0.263898	0.608752
     29661.12	0.10931	1586393.0	1218327.0	663062.0	0.263984	0.608365
     29661.63	0.11974	1731171.0	1329549.0	723418.0	0.263958	0.608608
     29662.13	0.12359	1789308.0	1374293.0	747895.0	0.263890	0.608432
     29662.64	0.13564	1965552.0	1509850.0	821817.0	0.263763	0.608248
     29663.15	0.14420	2071578.0	1591550.0	866677.0	0.263602	0.607797
     29663.65	0.12708	1837013.0	1411333.0	767950.0	0.263606	0.608565
     29664.16	0.14011	2026466.0	1556486.0	847373.0	0.263863	0.608045
     29664.66	0.15313	2220315.0	1705788.0	928691.0	0.263622	0.608006
     29665.17	0.11040	1602288.0	1231136.0	670144.0	0.263495	0.608200
     29665.68	0.11422	1654229.0	1270928.0	691853.0	0.263588	0.608129
     29666.18	0.12033	1741495.0	1337735.0	728513.0	0.263766	0.607728
     29666.69	0.12995	1875275.0	1440964.0	784919.0	0.263443	0.607487
     29667.19	0.12087	1738465.0	1335885.0	727751.0	0.263409	0.607390
     29667.70	0.13318	1908460.0	1466452.0	798817.0	0.263451	0.607469
     29668.21	0.15607	2226461.0	1711230.0	932283.0	0.263201	0.607331
     29668.71	0.15987	2298282.0	1766025.0	962172.0	0.263431	0.607293
     29669.22	0.10932	1575775.0	1211277.0	660173.0	0.263072	0.606929
     29669.73	0.12295	1774802.0	1364012.0	743254.0	0.263259	0.607148
     29670.23	0.13049	1873547.0	1439672.0	784650.0	0.263418	0.606933
     29670.74	0.12789	1828321.0	1405144.0	765692.0	0.263258	0.607115
     29671.25	0.13578	1930016.0	1483552.0	808925.0	0.263089	0.606488
     29671.75	0.12655	1773107.0	1362814.0	742856.0	0.263182	0.606805
     29672.26	0.11627	1640002.0	1260952.0	687374.0	0.262830	0.606744
     29672.76	0.14101	2002586.0	1539359.0	839422.0	0.263073	0.606408
     29673.27	0.11877	1701914.0	1308311.0	713709.0	0.263017	0.606017
     29673.78	0.12094	1739776.0	1337829.0	729693.0	0.262708	0.606180
     29674.28	0.11728	1691927.0	1301069.0	709656.0	0.262682	0.606161
     29674.79	0.13289	1907860.0	1466677.0	800112.0	0.262983	0.606003
     29675.30	0.12442	1798528.0	1383124.0	754362.0	0.262624	0.606228
     29675.80	0.12265	1775306.0	1365313.0	744835.0	0.262589	0.605976
     29676.31	0.12737	1835568.0	1411639.0	770225.0	0.262603	0.605824
     29676.82	0.12360	1791093.0	1377369.0	751577.0	0.262651	0.605757
     29677.32	0.11672	1682593.0	1293969.0	706052.0	0.262622	0.605781
     29677.83	0.12293	1785477.0	1373308.0	749544.0	0.262463	0.605513
     29678.34	0.12539	1811569.0	1393454.0	760545.0	0.262408	0.605506
     29678.84	0.11634	1679942.0	1292252.0	705631.0	0.262373	0.605049
     29679.35	0.11817	1705711.0	1311929.0	716243.0	0.262483	0.605234
     29679.86	0.12213	1761426.0	1354820.0	739586.0	0.262455	0.605333
     29680.36	0.12945	1870485.0	1438850.0	785381.0	0.262354	0.605431
     29680.87	0.11620	1675488.0	1288586.0	703447.0	0.262559	0.605308
     29681.38	0.12913	1863343.0	1433319.0	782804.0	0.262379	0.604866
     29681.88	0.12091	1739570.0	1337945.0	730851.0	0.262503	0.604681
     29682.39	0.12195	1726964.0	1328311.0	725318.0	0.262457	0.605053
     29682.90	0.13702	1961989.0	1509581.0	824860.0	0.262127	0.604374
     29683.40	0.12303	1754547.0	1349827.0	737407.0	0.262234	0.604592
     29683.91	0.13766	1978890.0	1522655.0	832362.0	0.262081	0.603943
     29684.42	0.11961	1720158.0	1323621.0	723460.0	0.262045	0.604081
     29684.92	0.12772	1827803.0	1406340.0	768555.0	0.262124	0.604234
     29685.43	0.12418	1776434.0	1366808.0	747271.0	0.262130	0.603805
     29685.94	0.11900	1703038.0	1310150.0	716300.0	0.262272	0.603798
     29686.44	0.12835	1841783.0	1416933.0	774545.0	0.262239	0.603974
     29686.95	0.13176	1899590.0	1461734.0	799510.0	0.262015	0.603380
     29687.46	0.12077	1735588.0	1335657.0	730286.0	0.261923	0.603742
     29687.97	0.13186	1903235.0	1464863.0	800775.0	0.261793	0.603937
     29688.47	0.11569	1676052.0	1290308.0	705785.0	0.261560	0.603326
     29688.98	0.13372	1929013.0	1484834.0	812335.0	0.261705	0.603145
     29689.49	0.13414	1935319.0	1489865.0	815037.0	0.261587	0.603207
     29689.99	0.12970	1860427.0	1431562.0	783592.0	0.262040	0.602633
     29690.50	0.12952	1866121.0	1436723.0	786104.0	0.261497	0.603031
     29691.01	0.13574	1964589.0	1512223.0	827548.0	0.261702	0.602869
     29691.51	0.12917	1872143.0	1441191.0	788595.0	0.261614	0.602972
     29692.02	0.12492	1801680.0	1386703.0	758992.0	0.261791	0.602693
     29692.53	0.12874	1860160.0	1431743.0	783996.0	0.261770	0.602244
     29693.04	0.12268	1767041.0	1360339.0	744671.0	0.261572	0.602547
     29693.54	0.11899	1714670.0	1320126.0	723093.0	0.261493	0.601945
     29694.05	0.12987	1880853.0	1447986.0	792902.0	0.261552	0.602229
     29694.56	0.12843	1856448.0	1429446.0	783202.0	0.261378	0.601652
     29695.06	0.11650	1681109.0	1294647.0	709148.0	0.261216	0.601929
     29695.57	0.13176	1905856.0	1467566.0	804294.0	0.261326	0.601396
     29696.08	0.11699	1690044.0	1301310.0	712981.0	0.261383	0.601672
     29696.59	0.12038	1723532.0	1326985.0	727301.0	0.261466	0.601324
     29697.09	0.10787	1551151.0	1194713.0	654861.0	0.261091	0.601238
     29697.60	0.12177	1755264.0	1351357.0	741124.0	0.261510	0.600697
     29698.11	0.11372	1642746.0	1265023.0	693598.0	0.261279	0.600953
     29698.62	0.11322	1635377.0	1259662.0	690877.0	0.261030	0.600637
     29699.12	0.12902	1855429.0	1429329.0	783787.0	0.260911	0.600823
     29699.63	0.11499	1653182.0	1273537.0	698415.0	0.260904	0.600740
     29700.14	0.10916	1574438.0	1213102.0	665547.0	0.260718	0.600327
     29700.65	0.12252	1764406.0	1358940.0	745441.0	0.261109	0.600484
     29701.15	0.12380	1784692.0	1375123.0	754437.0	0.260703	0.600327
     29701.66	0.13148	1891452.0	1456950.0	799739.0	0.261000	0.599815
     29702.17	0.12704	1834932.0	1413594.0	775942.0	0.260872	0.599813
     29702.67	0.11926	1712380.0	1319530.0	724535.0	0.260609	0.599501
     29703.18	0.14081	2022792.0	1558617.0	855916.0	0.260680	0.599382
     29703.69	0.12901	1854273.0	1428315.0	784421.0	0.260997	0.599305
     29704.20	0.12362	1756359.0	1353104.0	743164.0	0.260842	0.599240
     29704.70	0.13551	1940106.0	1494818.0	821006.0	0.260738	0.599229
     29705.21	0.12425	1768268.0	1362792.0	748582.0	0.260465	0.599110
     29705.72	0.12640	1815252.0	1399060.0	768596.0	0.260424	0.598990
     29706.23	0.13065	1873389.0	1443393.0	793343.0	0.260752	0.598496
     29706.74	0.12507	1803050.0	1389443.0	763504.0	0.260577	0.598740
     29707.24	0.12805	1829100.0	1409482.0	774956.0	0.260602	0.598171
     29707.75	0.14639	2065683.0	1592008.0	875179.0	0.260465	0.598323
     29708.26	0.12996	1858834.0	1432434.0	787291.0	0.260574	0.598532
     29708.77	0.13079	1876720.0	1446396.0	795119.0	0.260451	0.598338
     29709.27	0.13440	1924614.0	1483451.0	815685.0	0.260354	0.598098
     29709.78	0.13963	2004918.0	1545404.0	850073.0	0.260318	0.597718
     29710.29	0.13274	1901049.0	1465260.0	806111.0	0.260373	0.597567
     29710.80	0.13014	1852500.0	1427802.0	785117.0	0.260400	0.598059
     29711.30	0.13165	1869336.0	1441192.0	793153.0	0.260113	0.597210
     29711.81	0.12882	1831251.0	1411697.0	776832.0	0.260207	0.597324
     29712.32	0.12804	1828506.0	1409838.0	775892.0	0.260024	0.597217
     29712.83	0.12448	1778306.0	1370730.0	754385.0	0.260318	0.597196
     29713.34	0.12505	1795055.0	1383968.0	761843.0	0.260081	0.596970
     29713.84	0.12348	1772886.0	1367031.0	752788.0	0.259967	0.596613
     29714.35	0.12091	1745696.0	1346187.0	741494.0	0.259877	0.596364
     29714.86	0.12499	1797629.0	1386351.0	763630.0	0.259793	0.596347
     29715.37	0.12354	1766959.0	1362562.0	750264.0	0.259893	0.596697
     29715.88	0.13064	1862834.0	1436519.0	791755.0	0.259876	0.595726
     29716.38	0.12036	1726982.0	1331757.0	733571.0	0.259876	0.596330
     29716.89	0.12548	1797387.0	1386184.0	764050.0	0.259779	0.595677
     29717.40	0.11422	1639521.0	1264795.0	697010.0	0.259494	0.595866
     29717.91	0.12538	1799062.0	1387557.0	764615.0	0.259721	0.595927
     29718.41	0.12052	1733868.0	1337570.0	737150.0	0.259500	0.595818
     29718.92	0.12080	1734198.0	1337400.0	737744.0	0.259818	0.594886
     29719.43	0.12319	1761674.0	1358928.0	749595.0	0.259568	0.594918
     29719.94	0.12031	1727583.0	1332747.0	735028.0	0.259481	0.595089
     29720.45	0.11605	1667727.0	1286542.0	709710.0	0.259504	0.594857
     29720.96	0.12307	1767837.0	1363886.0	752224.0	0.259419	0.595059
     29721.46	0.12211	1744035.0	1345730.0	742560.0	0.259265	0.594588
     29721.97	0.13199	1892759.0	1459764.0	805335.0	0.259761	0.594772
     29722.48	0.13500	1930403.0	1489294.0	822219.0	0.259427	0.594051
     29722.99	0.13328	1906056.0	1470593.0	811855.0	0.259370	0.594099
     29723.50	0.13181	1890993.0	1459169.0	805905.0	0.259235	0.593657
     29724.00	0.12623	1800362.0	1389007.0	767059.0	0.259399	0.593781
     29724.51	0.12725	1828952.0	1411081.0	779442.0	0.259387	0.593533
     29725.02	0.11284	1620617.0	1250333.0	690971.0	0.259397	0.593067
     29725.53	0.11955	1716037.0	1324272.0	731841.0	0.259155	0.593055
     29726.04	0.13655	1959509.0	1512043.0	835549.0	0.259232	0.593128
     29726.55	0.11656	1663639.0	1284327.0	709710.0	0.258773	0.593134
     29727.05	0.13240	1895006.0	1462766.0	808739.0	0.258893	0.592608
     29727.56	0.12856	1833149.0	1414553.0	782067.0	0.259222	0.592628
     29728.07	0.12306	1767691.0	1363948.0	754325.0	0.259291	0.592315
     29728.58	0.13593	1946455.0	1502142.0	830726.0	0.259118	0.592347
     29729.09	0.11661	1674965.0	1292822.0	714930.0	0.258965	0.592398
     29729.60	0.12619	1798711.0	1388309.0	768019.0	0.258984	0.592027
     29730.10	0.13270	1891411.0	1459895.0	807559.0	0.258959	0.592104
     29730.61	0.12764	1823281.0	1407548.0	778877.0	0.258788	0.591751
     29731.12	0.12700	1824314.0	1408138.0	779316.0	0.258936	0.591607
     29731.63	0.13689	1951052.0	1505791.0	833341.0	0.259050	0.591631
     29732.14	0.16102	2294766.0	1771405.0	980857.0	0.258858	0.591102
     29732.65	0.20621	2946649.0	2274667.0	1259238.0	0.258835	0.591327
     29733.15	0.064661	925679.0	714643.0	395621.0	0.258744	0.591326
     29733.66	0.072826	1039372.0	802771.0	444505.0	0.258302	0.591108
     29734.17	0.11959	1712870.0	1322446.0	732359.0	0.258687	0.590968
     29734.68	0.12301	1753557.0	1354159.0	750154.0	0.258466	0.590657
     29735.19	0.13145	1876775.0	1448891.0	802822.0	0.258756	0.590421
     29735.70	0.12337	1758840.0	1358100.0	752768.0	0.258568	0.590085
     29736.21	0.16271	2333976.0	1802428.0	998442.0	0.258439	0.590694
     29736.71	0.15875	2260543.0	1745403.0	967482.0	0.258620	0.590044
     29737.22	0.093458	1336069.0	1031653.0	571941.0	0.258569	0.589882
     29737.73	0.081841	1172083.0	905250.0	501930.0	0.258327	0.589750
     29738.24	0.098298	1409974.0	1089017.0	603932.0	0.258296	0.589569
     29738.75	0.11188	1588559.0	1226902.0	680625.0	0.258335	0.589236
     29739.26	0.11980	1705175.0	1316853.0	730529.0	0.258423	0.589231
     29739.77	0.13234	1893792.0	1462954.0	811588.0	0.258123	0.589220
     29740.28	0.15588	2236044.0	1727064.0	957970.0	0.258285	0.589362
     29740.78	0.17997	2566995.0	1983250.0	1100725.0	0.257999	0.588768
     29741.29	0.060106	862009.0	665868.0	369562.0	0.258174	0.588773
     29741.80	0.057396	815528.0	630033.0	349695.0	0.258064	0.588711
     29742.31	0.13262	1895688.0	1464571.0	812781.0	0.258019	0.588856
     29742.82	0.12640	1802614.0	1392562.0	773303.0	0.258093	0.588230
     29743.33	0.14870	2128554.0	1644462.0	913091.0	0.258030	0.588333
     29743.84	0.11703	1663786.0	1285551.0	714014.0	0.257908	0.588040
     29744.35	0.15251	2177006.0	1682516.0	934739.0	0.257660	0.587778
     29744.86	0.11057	1567915.0	1211583.0	672924.0	0.257819	0.588051
     29745.36	0.13997	1989019.0	1536932.0	854194.0	0.257853	0.587385
     29745.87	0.11499	1640139.0	1267575.0	704309.0	0.257675	0.587644
     29746.38	0.11836	1692247.0	1307541.0	726275.0	0.257909	0.587975
     29746.89	0.14241	2026582.0	1566130.0	870273.0	0.257743	0.587556
     29747.40	0.12838	1821026.0	1407271.0	782192.0	0.257748	0.587307
     29747.91	0.13416	1908567.0	1474826.0	819642.0	0.257813	0.587428
     29748.42	0.18394	2627265.0	2030869.0	1129307.0	0.257480	0.586860
     29748.93	0.10316	1474147.0	1139390.0	633660.0	0.257586	0.586736
     29749.44	0.10700	1525600.0	1179465.0	656065.0	0.257327	0.586556
     29749.95	0.12367	1763345.0	1362772.0	758201.0	0.257692	0.586328
     29750.45	0.13217	1875362.0	1449364.0	806381.0	0.257677	0.586324
     29750.96	0.13694	1945983.0	1504450.0	837300.0	0.257340	0.586000
     29751.47	0.14125	2023046.0	1564232.0	870437.0	0.257209	0.586155
     29751.98	0.12365	1752718.0	1355186.0	753985.0	0.257229	0.586322
     29752.49	0.17193	2435588.0	1883096.0	1047765.0	0.257271	0.586258
     29753.00	0.095307	1347861.0	1041950.0	579742.0	0.257425	0.586266
     29753.51	0.11110	1579186.0	1220820.0	679594.0	0.257387	0.585782
     29754.02	0.12719	1810618.0	1400045.0	779155.0	0.257164	0.586050
     29754.53	0.12321	1742481.0	1347294.0	750019.0	0.257212	0.585755
     29755.04	0.12715	1809874.0	1399853.0	779603.0	0.256890	0.585338
     29755.55	0.12992	1844089.0	1426111.0	793976.0	0.257034	0.585653
     29756.06	0.12075	1713119.0	1324887.0	737956.0	0.256989	0.585198
     29756.57	0.14624	2085960.0	1613323.0	898405.0	0.256933	0.585430
     29757.07	0.10385	1482814.0	1146892.0	639046.0	0.256886	0.584835
     29757.58	0.11630	1657909.0	1281977.0	714428.0	0.257154	0.584676
     29758.09	0.12774	1815404.0	1403951.0	782378.0	0.257018	0.584708
     29758.60	0.12332	1756357.0	1358348.0	756992.0	0.256973	0.584672
     29759.11	0.11342	1619531.0	1252808.0	698164.0	0.256749	0.584689
     29759.62	0.11942	1700376.0	1315400.0	733235.0	0.256709	0.584430
     29760.13	0.12219	1740637.0	1346461.0	750369.0	0.256771	0.584670
     29760.64	0.12404	1762836.0	1363289.0	760022.0	0.257024	0.584308
     29761.15	0.11592	1645361.0	1272750.0	709741.0	0.256780	0.584035
     29761.66	0.11885	1684889.0	1303049.0	726734.0	0.256993	0.583902
     29762.17	0.13153	1864859.0	1442754.0	804486.0	0.256632	0.584106
     29762.68	0.13245	1885303.0	1458435.0	813412.0	0.256725	0.583881
     29763.19	0.13224	1889871.0	1462057.0	815578.0	0.256664	0.583703
     29763.70	0.12657	1798754.0	1391556.0	776429.0	0.256672	0.583473
     29764.21	0.13402	1900934.0	1470522.0	820719.0	0.256728	0.583192
     29764.72	0.12514	1759424.0	1361228.0	759474.0	0.256599	0.583516
     29765.23	0.12458	1756986.0	1359260.0	758407.0	0.256659	0.583476
     29765.74	0.11510	1638673.0	1268189.0	707847.0	0.256297	0.583117
     29766.25	0.13498	1908806.0	1477233.0	824123.0	0.256307	0.583606
     29766.76	0.12415	1757865.0	1360281.0	759029.0	0.256409	0.583407
     29767.26	0.12343	1710004.0	1323237.0	738756.0	0.256415	0.582869
     29767.77	0.12130	1718965.0	1330484.0	742557.0	0.256180	0.583198
     29768.28	0.12845	1822039.0	1410411.0	787561.0	0.256075	0.582696
     29768.79	0.12275	1738842.0	1345549.0	751172.0	0.256417	0.582923
     29769.30	0.13809	1936887.0	1499424.0	837071.0	0.256001	0.582927
     29769.81	0.12471	1742394.0	1348820.0	753134.0	0.256030	0.582742
     29770.32	0.14107	1986874.0	1538099.0	859060.0	0.256015	0.582464
     29770.83	0.12697	1797842.0	1391761.0	777495.0	0.256017	0.582248
     29771.34	0.12669	1777274.0	1375795.0	768566.0	0.256049	0.582261
     29771.85	0.13752	1947696.0	1507824.0	842303.0	0.255980	0.582283
     29772.36	0.11962	1674171.0	1296498.0	724227.0	0.255651	0.582317
     29772.87	0.12886	1818883.0	1408192.0	787072.0	0.255916	0.581742
     29773.38	0.12551	1760584.0	1363175.0	761756.0	0.255829	0.581946
     29773.89	0.12806	1802766.0	1395824.0	779988.0	0.255837	0.581962
     29774.40	0.12720	1787134.0	1383782.0	773354.0	0.255793	0.581839
     29774.91	0.11600	1632026.0	1263665.0	706451.0	0.255806	0.581518
     29775.42	0.12854	1805094.0	1398095.0	781181.0	0.255502	0.582059
     29775.93	0.13632	1928826.0	1493355.0	834827.0	0.255886	0.581556
     29776.44	0.097016	1379348.0	1068402.0	597378.0	0.255447	0.581369
     29776.95	0.12197	1722780.0	1334176.0	745792.0	0.255625	0.581622
     29777.46	0.11372	1599853.0	1238895.0	692870.0	0.255692	0.581133
     29777.97	0.12131	1692836.0	1311067.0	733259.0	0.255564	0.581098
     29778.48	0.11438	1606775.0	1244645.0	696106.0	0.255379	0.581104
     29778.99	0.11571	1616104.0	1251981.0	700417.0	0.255291	0.580807
     29779.50	0.11750	1642698.0	1272748.0	711946.0	0.255162	0.580932
     29780.01	0.13085	1814924.0	1405930.0	786342.0	0.255345	0.581062
     29780.52	0.12023	1665175.0	1289934.0	721674.0	0.255339	0.580773
     29781.03	0.099148	1377617.0	1066825.0	596736.0	0.255668	0.580967
     29781.54	0.12306	1697107.0	1314605.0	735245.0	0.255389	0.581088
     29782.05	0.14177	1941509.0	1504208.0	841742.0	0.255199	0.580548
     29782.56	0.12819	1784255.0	1382197.0	773379.0	0.255327	0.580660
     29783.07	0.12343	1723922.0	1335469.0	747571.0	0.255319	0.580209
     29783.58	0.13780	1925825.0	1492047.0	834939.0	0.255205	0.580546
     29784.09	0.14244	1984074.0	1537102.0	860677.0	0.255253	0.579935
     29784.60	0.11629	1624657.0	1259173.0	704980.0	0.254842	0.580041
     29785.12	0.13297	1858288.0	1440125.0	806830.0	0.254926	0.579372
     29785.63	0.11986	1666704.0	1291581.0	723083.0	0.254981	0.580098
     29786.14	0.13308	1849128.0	1432979.0	802279.0	0.254959	0.580054
     29786.65	0.12967	1802233.0	1396969.0	781957.0	0.254722	0.580260
     29787.16	0.12419	1729063.0	1339997.0	750646.0	0.254912	0.579488
     29787.67	0.14209	1991245.0	1543299.0	864384.0	0.254838	0.579660
     29788.18	0.12488	1743028.0	1350979.0	756739.0	0.254794	0.579566
     29788.69	0.12655	1758998.0	1363047.0	763488.0	0.255022	0.579581
     29789.20	0.13640	1899882.0	1472825.0	825258.0	0.254609	0.579242
     29789.71	0.13320	1836394.0	1423397.0	797621.0	0.254758	0.579168
     29790.22	0.14386	1982969.0	1536892.0	861109.0	0.254833	0.579296
     29790.73	0.12771	1778675.0	1378551.0	772419.0	0.254836	0.579261
     29791.24	0.12228	1706655.0	1323126.0	741679.0	0.254538	0.578836
     29791.75	0.13592	1916196.0	1485671.0	832719.0	0.254475	0.578926
     29792.26	0.12328	1706659.0	1323054.0	741687.0	0.254595	0.578771
     29792.77	0.12625	1768535.0	1370821.0	768516.0	0.254742	0.578704
     29793.28	0.12552	1740304.0	1349240.0	756317.0	0.254518	0.578836
     29793.79	0.13190	1840351.0	1427067.0	800065.0	0.254335	0.578684
     29794.30	0.12189	1698586.0	1317170.0	738521.0	0.254311	0.578591
     29794.81	0.12354	1738918.0	1348472.0	756073.0	0.254291	0.578589
     29795.32	0.12838	1783808.0	1383060.0	775687.0	0.254452	0.578305
     29795.84	0.11784	1651965.0	1280984.0	718470.0	0.254337	0.578260
     29796.35	0.12113	1670361.0	1295300.0	726738.0	0.254297	0.577932
     29796.86	0.12354	1713023.0	1328856.0	745605.0	0.253941	0.577878
     29797.37	0.12852	1787653.0	1386742.0	778103.0	0.253946	0.577853
     29797.88	0.12572	1761689.0	1366162.0	766440.0	0.254268	0.578004
     29798.39	0.12127	1682322.0	1304815.0	731947.0	0.254114	0.578108
     29798.90	0.11265	1554493.0	1205939.0	676547.0	0.253891	0.578012
     29799.41	0.12371	1723109.0	1337017.0	750287.0	0.253689	0.577740
     29799.92	0.12095	1665826.0	1292542.0	725505.0	0.253710	0.577498
     29800.43	0.12270	1707644.0	1324604.0	743683.0	0.254001	0.577254
     29800.94	0.12140	1688508.0	1309862.0	735313.0	0.253924	0.577381
     29801.45	0.12453	1740964.0	1350987.0	758584.0	0.253604	0.577137
     29801.97	0.12424	1743814.0	1353018.0	759766.0	0.253737	0.577082
     29802.48	0.13120	1811643.0	1405654.0	789519.0	0.253731	0.576834
     29802.99	0.14033	1955046.0	1516752.0	851706.0	0.253843	0.577085
     29803.50	0.12505	1752939.0	1360219.0	764032.0	0.253648	0.576791
     29804.01	0.12086	1691126.0	1312605.0	737325.0	0.253381	0.576740
     29804.52	0.12847	1796421.0	1393994.0	783384.0	0.253623	0.576305
     29805.03	0.12568	1756877.0	1363332.0	766049.0	0.253606	0.576441
     29805.54	0.13266	1849186.0	1434545.0	806199.0	0.253898	0.576272
     29806.05	0.11251	1562227.0	1212221.0	681642.0	0.253658	0.575705
     29806.56	0.12897	1795537.0	1393545.0	783166.0	0.253453	0.576261
     29807.07	0.12406	1730446.0	1343070.0	754908.0	0.253421	0.576117
     29807.59	0.15026	2101458.0	1631022.0	917354.0	0.253425	0.575469
     29808.10	0.19135	2644859.0	2052526.0	1154435.0	0.253547	0.575460
     29808.61	0.056749	776055.0	602255.0	338642.0	0.253542	0.575737
     29809.12	0.098653	1373185.0	1065754.0	599482.0	0.253450	0.575372
     29809.63	0.13796	1919256.0	1490230.0	838245.0	0.253007	0.575375
     29810.14	0.13507	1870941.0	1452061.0	816581.0	0.253458	0.575613
     29810.65	0.13402	1848529.0	1435133.0	807884.0	0.253133	0.574594
     29811.16	0.13709	1906663.0	1479969.0	832730.0	0.253333	0.575067
     29811.68	0.13156	1836712.0	1425956.0	802113.0	0.253135	0.575348
     29812.19	0.11097	1551742.0	1204552.0	677736.0	0.253270	0.575105
     29812.70	0.11905	1654163.0	1284267.0	722877.0	0.253107	0.574704
     29813.21	0.12676	1772532.0	1376154.0	774499.0	0.253116	0.574832
     29813.72	0.13324	1856317.0	1441085.0	811249.0	0.253198	0.574577
     29814.23	0.11979	1683131.0	1307292.0	735838.0	0.252698	0.574703
     29814.74	0.14579	2036121.0	1581300.0	889961.0	0.252799	0.574825
     29815.25	0.12121	1695047.0	1316233.0	741295.0	0.252937	0.574130
     29815.77	0.12712	1794563.0	1393645.0	784934.0	0.252839	0.574078
     29816.28	0.11409	1603871.0	1245493.0	701688.0	0.252889	0.573798
     29816.79	0.10738	1512443.0	1174266.0	661589.0	0.253083	0.573754
     29817.30	0.11693	1645470.0	1278061.0	719687.0	0.252682	0.574283
     29817.81	0.11270	1572496.0	1221354.0	687988.0	0.252704	0.573944
     29818.32	0.11183	1570839.0	1220491.0	687591.0	0.252357	0.573814
     29818.83	0.14447	2019509.0	1568697.0	883959.0	0.252609	0.573590
     29819.35	0.11579	1615105.0	1254534.0	707044.0	0.252636	0.573427
     29819.86	0.12306	1724104.0	1338940.0	754562.0	0.252829	0.573496
     29820.37	0.11105	1549454.0	1203567.0	678332.0	0.252613	0.573408
     29820.88	0.10473	1468511.0	1140813.0	643104.0	0.252508	0.573190
     29821.39	0.12767	1790231.0	1391064.0	784234.0	0.252276	0.573117
     29821.90	0.12579	1775295.0	1379232.0	777776.0	0.252440	0.572844
     29822.42	0.12228	1726013.0	1341333.0	756655.0	0.252150	0.572512
     29822.93	0.14854	2091625.0	1625216.0	916812.0	0.252301	0.572494
     29823.44	0.13793	1945337.0	1511256.0	852962.0	0.252494	0.571981
     29823.95	0.15902	2234626.0	1736395.0	979723.0	0.252263	0.572297
     29824.46	0.083235	1166047.0	906079.0	511168.0	0.252248	0.572428
     29824.97	0.13423	1887642.0	1467137.0	827985.0	0.252016	0.572073
     29825.49	0.11460	1612244.0	1253093.0	707371.0	0.252012	0.571815
     29826.00	0.12892	1805607.0	1403291.0	792181.0	0.252077	0.571786
     29826.51	0.13966	1948946.0	1514686.0	855305.0	0.252081	0.571505
     29827.02	0.12770	1788590.0	1389960.0	784802.0	0.252153	0.571599
     29827.53	0.12634	1774590.0	1379507.0	779059.0	0.251843	0.571395
     29828.04	0.14898	2095269.0	1629112.0	920189.0	0.251647	0.571211
     29828.56	0.11465	1602010.0	1245168.0	703169.0	0.251989	0.571428
     29829.07	0.13165	1846156.0	1435193.0	810649.0	0.251806	0.571219
     29829.58	0.12682	1784884.0	1387450.0	784011.0	0.251886	0.570800
     29830.09	0.13411	1889895.0	1469784.0	830488.0	0.251406	0.570857
     29830.60	0.13001	1813753.0	1410149.0	796903.0	0.251703	0.570718
     29831.11	0.14162	1993775.0	1549843.0	875838.0	0.251876	0.570728
     29831.63	0.13969	1962682.0	1525876.0	862339.0	0.251743	0.570675
     29832.14	0.12882	1816252.0	1412390.0	798623.0	0.251492	0.570150
     29832.65	0.11984	1692861.0	1316369.0	744364.0	0.251543	0.570102
     29833.16	0.12300	1729546.0	1344713.0	760382.0	0.251678	0.570115
     29833.67	0.12778	1799709.0	1399744.0	791748.0	0.251336	0.569801
     29834.19	0.12654	1779363.0	1383518.0	782580.0	0.251626	0.569789
     29834.70	0.11937	1663363.0	1293623.0	731804.0	0.251395	0.569689
     29835.21	0.12427	1750656.0	1361251.0	770249.0	0.251586	0.569446
     29835.72	0.13560	1901405.0	1478928.0	837177.0	0.251276	0.569037
     29836.23	0.12370	1730861.0	1346068.0	761732.0	0.251431	0.569348
     29836.75	0.11547	1619884.0	1259646.0	713293.0	0.251524	0.568694
     29837.26	0.12551	1772327.0	1379159.0	780379.0	0.250819	0.569449
     29837.77	0.11815	1656094.0	1287997.0	729418.0	0.251374	0.568597
     29838.28	0.13149	1848969.0	1438077.0	814118.0	0.251321	0.568957
     29838.80	0.12439	1754718.0	1364891.0	772919.0	0.251234	0.568656
     29839.31	0.12039	1676593.0	1304166.0	738611.0	0.251200	0.568548
     29839.82	0.10792	1510836.0	1175819.0	665857.0	0.250698	0.568645
     29840.33	0.13745	1932629.0	1503744.0	851606.0	0.250923	0.568589
     29840.84	0.10687	1509227.0	1174259.0	665252.0	0.250960	0.568227
     29841.36	0.12308	1726356.0	1343088.0	761095.0	0.251041	0.567969
     29841.87	0.12936	1817127.0	1413569.0	800881.0	0.251139	0.568161
     29842.38	0.11992	1692483.0	1316748.0	746425.0	0.251032	0.567625
     29842.89	0.13626	1913464.0	1488740.0	844063.0	0.250985	0.567458
     29843.41	0.12379	1739965.0	1353568.0	767278.0	0.251121	0.567650
     29843.92	0.13237	1854434.0	1442894.0	817993.0	0.250929	0.567552
     29844.43	0.12521	1761908.0	1370986.0	777549.0	0.250867	0.567139
     29844.94	0.12097	1697798.0	1321292.0	749058.0	0.250722	0.567549
     29845.46	0.13420	1875297.0	1459065.0	827318.0	0.250971	0.567362
     29845.97	0.12797	1793661.0	1395820.0	791747.0	0.250777	0.566995
     29846.48	0.11633	1624097.0	1264088.0	717342.0	0.250601	0.566553
     29846.99	0.12865	1797582.0	1399110.0	794004.0	0.250606	0.566503
     29847.50	0.12128	1672836.0	1302085.0	739117.0	0.250554	0.566266
     29848.02	0.12996	1808646.0	1407567.0	798619.0	0.250716	0.566734
     29848.53	0.12443	1739754.0	1354293.0	768580.0	0.250464	0.566490
     29849.04	0.12680	1777272.0	1383324.0	785107.0	0.250590	0.566425
     29849.56	0.12860	1794175.0	1396709.0	792980.0	0.250427	0.566076
     29850.07	0.12895	1810573.0	1409403.0	800100.0	0.250477	0.566185
     29850.58	0.12196	1708737.0	1329984.0	755148.0	0.250588	0.566008
     29851.09	0.13397	1857666.0	1446371.0	821627.0	0.250263	0.565526
     29851.61	0.12577	1758855.0	1369308.0	777972.0	0.250358	0.565370
     29852.12	0.13236	1838671.0	1431642.0	813458.0	0.250221	0.565283
     29852.63	0.12491	1750335.0	1363123.0	774509.0	0.250029	0.565304
     29853.14	0.13688	1922099.0	1496728.0	850585.0	0.250136	0.565112
     29853.66	0.12884	1796119.0	1398747.0	795018.0	0.250051	0.564967
     29854.17	0.11908	1669948.0	1300089.0	738904.0	0.250360	0.565020
     29854.68	0.13035	1826912.0	1422619.0	808664.0	0.250128	0.564871
     29855.19	0.12415	1726712.0	1344748.0	764747.0	0.250012	0.564417
     29855.71	0.12176	1702258.0	1325669.0	754214.0	0.250038	0.563996
     29856.22	0.12348	1731746.0	1348495.0	766586.0	0.250141	0.564798
     29856.73	0.11610	1621403.0	1262689.0	718281.0	0.250048	0.564138
     29857.25	0.13874	1940825.0	1511668.0	859816.0	0.249899	0.564251
     29857.76	0.11094	1554664.0	1210953.0	688800.0	0.249852	0.564212
     29858.27	0.11874	1649714.0	1284942.0	730926.0	0.249888	0.564157
     29858.78	0.11897	1643520.0	1280120.0	728476.0	0.249886	0.563754
     29859.30	0.11398	1585561.0	1235087.0	702885.0	0.249797	0.563703
     29859.81	0.11389	1570066.0	1223005.0	696102.0	0.249807	0.563570
     29860.32	0.11817	1633505.0	1272650.0	724222.0	0.249627	0.563759
     29860.84	0.12325	1713204.0	1334734.0	759693.0	0.249633	0.563573
     29861.35	0.10918	1516975.0	1181748.0	672706.0	0.249724	0.563442
     29861.86	0.11377	1590658.0	1239440.0	705853.0	0.249488	0.563008
     29862.37	0.12962	1810224.0	1410381.0	803100.0	0.249591	0.563136
     29862.89	0.12062	1684281.0	1312413.0	747250.0	0.249471	0.563223
     29863.40	0.13475	1877701.0	1463049.0	833427.0	0.249526	0.562732
     29863.91	0.14088	1954202.0	1522435.0	867116.0	0.249671	0.562894
     29864.43	0.11565	1586806.0	1236717.0	704667.0	0.249263	0.562490
     29864.94	0.13579	1883309.0	1467530.0	836046.0	0.249450	0.562652
     29865.45	0.13697	1898725.0	1479406.0	843164.0	0.249542	0.562234
     29865.97	0.11641	1620479.0	1263014.0	719631.0	0.249221	0.562518
     29866.48	0.13496	1858181.0	1448274.0	825429.0	0.249226	0.562225
     29866.99	0.12748	1776162.0	1384178.0	788794.0	0.249348	0.562357
     29867.50	0.13489	1875169.0	1461311.0	832840.0	0.249365	0.562248
     29868.02	0.11938	1649400.0	1285590.0	733037.0	0.249194	0.561777
     29868.53	0.14209	1974089.0	1538783.0	877341.0	0.249115	0.561851
     29869.04	0.12525	1746421.0	1361509.0	776433.0	0.248975	0.561639
     29869.56	0.12870	1794137.0	1398357.0	797336.0	0.249226	0.561777
     29870.07	0.14236	1997499.0	1556731.0	887843.0	0.249308	0.561548
     29870.58	0.12947	1811351.0	1412085.0	805550.0	0.249006	0.561297
     29871.10	0.12390	1732285.0	1350634.0	770620.0	0.248867	0.561134
     29871.61	0.14049	1945708.0	1516734.0	864950.0	0.249067	0.561643
     29872.12	0.12799	1783761.0	1390894.0	793357.0	0.248777	0.561429
     29872.64	0.13527	1884960.0	1469736.0	838701.0	0.248824	0.560984
     29873.15	0.12699	1768866.0	1379324.0	786742.0	0.248745	0.561448
     29873.66	0.12268	1697170.0	1323382.0	755162.0	0.248772	0.561014
     29874.18	0.13827	1930355.0	1505084.0	858868.0	0.248855	0.560989
     29874.69	0.12493	1739633.0	1356260.0	774224.0	0.248943	0.560625
     29875.20	0.12061	1680883.0	1310834.0	748709.0	0.248656	0.560068
     29875.72	0.12993	1803108.0	1406272.0	802858.0	0.248570	0.560520
     29876.23	0.12432	1723629.0	1343965.0	767709.0	0.248808	0.559969
     29876.74	0.12534	1748270.0	1363657.0	778719.0	0.248457	0.560275
     29877.26	0.11674	1609011.0	1254935.0	716681.0	0.248536	0.560208
     29877.77	0.12335	1706764.0	1331108.0	760401.0	0.248588	0.559921
     29878.29	0.12996	1805322.0	1408136.0	804617.0	0.248472	0.559656
     29878.80	0.11619	1584798.0	1236289.0	706523.0	0.248343	0.559514
     29879.31	0.13286	1816938.0	1417417.0	809808.0	0.248316	0.559794
     29879.83	0.12293	1683362.0	1312967.0	750612.0	0.248504	0.559156
     29880.34	0.11955	1643889.0	1282331.0	732958.0	0.248385	0.559346
     29880.85	0.12085	1670915.0	1303720.0	745160.0	0.248150	0.559378
     29881.37	0.11559	1601995.0	1249800.0	714409.0	0.248266	0.559283
     29881.88	0.11941	1648004.0	1285583.0	734751.0	0.248353	0.559436
     29882.39	0.11510	1597513.0	1246558.0	713049.0	0.248062	0.558591
     29882.91	0.13141	1814445.0	1415965.0	809559.0	0.247968	0.559077
     29883.42	0.12436	1703612.0	1328698.0	760298.0	0.248551	0.558244
     29883.94	0.12534	1737989.0	1355821.0	775508.0	0.248322	0.558644
     29884.45	0.12463	1728037.0	1348577.0	771091.0	0.247936	0.558999
     29884.96	0.12480	1693558.0	1321639.0	755889.0	0.247959	0.558733
     29885.48	0.13745	1875898.0	1463984.0	837628.0	0.247926	0.558343
     29885.99	0.13137	1806319.0	1409751.0	806595.0	0.247878	0.558347
     29886.50	0.12917	1785667.0	1393729.0	797498.0	0.247809	0.558259
     29887.02	0.12243	1678576.0	1310179.0	749729.0	0.247782	0.558207
     29887.53	0.12759	1754680.0	1369573.0	783993.0	0.247787	0.557854
     29888.05	0.11182	1544010.0	1204792.0	689663.0	0.248076	0.557859
     29888.56	0.12735	1746443.0	1362866.0	780385.0	0.247991	0.557558
     29889.07	0.12268	1685465.0	1315494.0	753372.0	0.247829	0.557408
     29889.59	0.13413	1841452.0	1436782.0	822724.0	0.248149	0.557540
     29890.10	0.12380	1711841.0	1336381.0	765324.0	0.247604	0.557421
     29890.62	0.12489	1701004.0	1327760.0	760323.0	0.247725	0.557505
     29891.13	0.12906	1794166.0	1400640.0	802121.0	0.247611	0.557425
     29891.64	0.13416	1869808.0	1459914.0	836202.0	0.247458	0.557263
     29892.16	0.12716	1765352.0	1378394.0	789271.0	0.247431	0.557565
     29892.67	0.12493	1731239.0	1351489.0	774039.0	0.247630	0.557340
     29893.19	0.13586	1869402.0	1459652.0	836333.0	0.247421	0.556926
     29893.70	0.13775	1920047.0	1498797.0	858757.0	0.247687	0.556932
     29894.21	0.11806	1647162.0	1286487.0	736859.0	0.247139	0.557274
     29894.73	0.13124	1827936.0	1427316.0	818080.0	0.247392	0.556591
     29895.24	0.11658	1610996.0	1257875.0	721083.0	0.247429	0.556425
     29895.76	0.12174	1685313.0	1316256.0	754603.0	0.247160	0.556355
     29896.27	0.13066	1822115.0	1423122.0	815785.0	0.247145	0.556457
     29896.78	0.13030	1804168.0	1409329.0	808122.0	0.246986	0.556156
     29897.30	0.14026	1949233.0	1522505.0	872697.0	0.247079	0.556524
     29897.81	0.13954	1928727.0	1506668.0	864149.0	0.246960	0.555911
     29898.33	0.10136	1402560.0	1095554.0	628377.0	0.247039	0.555875
     29898.84	0.11580	1606185.0	1254547.0	719468.0	0.247087	0.556018
     29899.36	0.12005	1646810.0	1286746.0	737994.0	0.246724	0.555936
     29899.87	0.10640	1473836.0	1151356.0	660432.0	0.246928	0.555801
     29900.38	0.12663	1743093.0	1361456.0	781360.0	0.247106	0.555274
     29900.90	0.11878	1645324.0	1285367.0	737241.0	0.246893	0.555885
     29901.41	0.12569	1733671.0	1354528.0	777268.0	0.246788	0.555423
     29901.93	0.16285	2243645.0	1753117.0	1006133.0	0.246706	0.555281
     29902.44	0.085349	1183259.0	924516.0	530473.0	0.246757	0.555501
     29902.96	0.082405	1128269.0	881457.0	506130.0	0.246864	0.554783
     29903.47	0.12898	1785960.0	1395526.0	800848.0	0.246685	0.555356
     29903.98	0.12819	1766774.0	1380193.0	792534.0	0.246932	0.554743
     29904.50	0.11900	1640473.0	1282048.0	736209.0	0.246526	0.554700
     29905.01	0.13610	1877258.0	1467049.0	842501.0	0.246559	0.554633
     29905.53	0.11367	1569220.0	1226238.0	703895.0	0.246628	0.555077
     29906.04	0.13119	1800342.0	1406751.0	807794.0	0.246694	0.554731
     29906.56	0.13499	1855365.0	1449300.0	832412.0	0.247001	0.554508
     29907.07	0.11687	1599702.0	1249744.0	718089.0	0.246879	0.554100
     29907.59	0.13347	1817471.0	1420317.0	816124.0	0.246566	0.554069
     29908.10	0.14039	1915482.0	1497175.0	860087.0	0.246389	0.554302
     29908.62	0.13088	1794797.0	1402994.0	805864.0	0.246283	0.554449
     29909.13	0.12388	1701911.0	1330373.0	764217.0	0.246292	0.554363
     29909.64	0.13332	1821195.0	1423774.0	818292.0	0.246182	0.553847
     29910.16	0.18939	2583482.0	2019557.0	1160680.0	0.246260	0.553872
     29910.67	0.080750	1101025.0	860690.0	494815.0	0.246262	0.553550
     29911.19	0.11667	1603352.0	1253561.0	720698.0	0.246108	0.553523
     29911.70	0.12874	1756557.0	1373315.0	789594.0	0.246128	0.553464
     29912.22	0.13382	1818443.0	1421623.0	817786.0	0.246181	0.552954
     29912.73	0.13464	1831749.0	1432288.0	824126.0	0.245998	0.552705
     29913.25	0.14127	1911853.0	1494727.0	859926.0	0.246129	0.552853
     29913.76	0.11742	1601598.0	1252411.0	720437.0	0.245931	0.552968
     29914.28	0.14843	1999144.0	1563028.0	899300.0	0.246094	0.552764
     29914.79	0.13641	1858656.0	1453791.0	836426.0	0.245679	0.552792
     29915.31	0.11380	1531731.0	1197946.0	689452.0	0.245790	0.552467
     29915.82	0.12795	1720233.0	1345040.0	774119.0	0.246036	0.552453
     29916.34	0.12994	1767069.0	1381980.0	795190.0	0.245805	0.552691
     29916.85	0.11917	1609048.0	1258571.0	724142.0	0.245666	0.552745
     29917.37	0.13093	1757562.0	1374212.0	791122.0	0.246047	0.552184
     29917.88	0.11834	1589809.0	1243565.0	715972.0	0.245632	0.552096
     29918.40	0.12090	1626631.0	1272191.0	732698.0	0.245770	0.551762
     29918.91	0.13321	1794885.0	1403651.0	808026.0	0.245864	0.552238
     29919.43	0.11824	1602064.0	1253076.0	721715.0	0.245691	0.551726
     29919.94	0.13459	1816369.0	1420458.0	817917.0	0.245860	0.551974
     29920.46	0.11462	1546793.0	1209828.0	696741.0	0.245706	0.551820
     29920.97	0.13018	1740819.0	1361960.0	784449.0	0.245431	0.551699
     29921.49	0.11502	1541545.0	1206217.0	694895.0	0.245296	0.551484
     29922.00	0.12846	1739933.0	1361524.0	784167.0	0.245242	0.551738
     29922.52	0.11022	1489659.0	1165316.0	671529.0	0.245555	0.551190
     29923.03	0.11609	1584626.0	1239831.0	714398.0	0.245373	0.551290
     29923.55	0.12679	1731838.0	1355249.0	780923.0	0.245198	0.551264
     29924.06	0.12263	1663543.0	1301928.0	750490.0	0.245103	0.550875
     29924.58	0.12600	1718660.0	1344912.0	774935.0	0.245216	0.551305
     29925.09	0.11136	1505133.0	1177787.0	678900.0	0.245244	0.550919
     29925.61	0.13179	1779066.0	1392458.0	802791.0	0.245018	0.550731
     29926.12	0.11465	1550546.0	1213417.0	699868.0	0.245167	0.550304
     29926.64	0.13811	1859044.0	1454920.0	838742.0	0.245111	0.550803
     29927.15	0.12845	1718364.0	1344404.0	775500.0	0.245422	0.550198
     29927.67	0.12010	1607864.0	1258107.0	725776.0	0.245298	0.550122
     29928.18	0.14430	1936627.0	1515825.0	874559.0	0.244988	0.549995
     29928.70	0.12520	1697911.0	1329090.0	766667.0	0.244904	0.550197
     29929.21	0.12029	1628157.0	1274032.0	735101.0	0.245262	0.549934
     29929.73	0.12363	1657942.0	1297904.0	748984.0	0.244826	0.549788
     29930.24	0.12650	1739654.0	1361816.0	785939.0	0.244867	0.549695
     29930.76	0.12618	1696013.0	1327268.0	766376.0	0.245158	0.549205
     29931.27	0.12846	1730937.0	1354847.0	782039.0	0.244974	0.549539
     29931.79	0.11044	1485595.0	1163144.0	671328.0	0.244689	0.549624
     29932.31	0.12924	1748438.0	1368828.0	790162.0	0.244768	0.549472
     29932.82	0.12849	1733809.0	1357672.0	783730.0	0.244549	0.549462
     29933.34	0.13057	1770854.0	1386556.0	801010.0	0.244639	0.548705
     29933.85	0.13265	1795057.0	1405494.0	811826.0	0.244648	0.548858
     29934.37	0.12699	1711192.0	1339846.0	773946.0	0.244636	0.548808
     29934.88	0.13151	1754391.0	1373864.0	793478.0	0.244495	0.548957
     29935.40	0.12826	1735011.0	1358486.0	784817.0	0.244643	0.548676
     29935.91	0.12504	1687454.0	1321385.0	763649.0	0.244540	0.548327
     29936.43	0.12666	1720259.0	1347156.0	778539.0	0.244479	0.548332
     29936.94	0.13164	1744644.0	1366061.0	789223.0	0.244619	0.548638
     29937.46	0.12885	1736980.0	1360353.0	786209.0	0.244404	0.548277
     29937.98	0.12764	1732461.0	1357258.0	784737.0	0.244076	0.547873
     29938.49	0.12869	1734646.0	1358381.0	785342.0	0.244510	0.547930
     29939.01	0.12391	1681208.0	1316832.0	761092.0	0.244284	0.548230
     29939.52	0.12956	1738295.0	1361335.0	787310.0	0.244439	0.547599
     29940.04	0.11526	1563384.0	1224528.0	708180.0	0.244297	0.547612
     29940.55	0.11647	1555059.0	1218309.0	704626.0	0.244050	0.547552
     29941.07	0.12894	1732369.0	1356883.0	784929.0	0.244300	0.547352
     29941.59	0.11572	1566744.0	1226936.0	709652.0	0.244480	0.547501
     29942.10	0.12688	1710815.0	1340218.0	775458.0	0.244138	0.547134
     29942.62	0.11347	1512420.0	1184986.0	685621.0	0.243980	0.547161
     29943.13	0.11270	1491129.0	1168059.0	676327.0	0.244190	0.546422
     29943.65	0.11545	1534833.0	1202487.0	696044.0	0.244030	0.546734
     29944.16	0.11221	1500678.0	1175582.0	680651.0	0.244154	0.546469
     29944.68	0.11823	1560799.0	1223126.0	707887.0	0.243788	0.546881
     29945.20	0.11713	1554951.0	1218767.0	705512.0	0.243604	0.546671
     29945.71	0.11897	1572238.0	1231861.0	713201.0	0.243974	0.546518
     29946.23	0.13677	1794717.0	1406330.0	813816.0	0.243864	0.547004
     29946.74	0.12620	1666001.0	1305368.0	755614.0	0.243941	0.546710
     29947.26	0.11639	1540186.0	1207310.0	699160.0	0.243508	0.546270
     29947.78	0.12973	1706929.0	1337576.0	774956.0	0.243837	0.545808
     29948.29	0.12337	1629681.0	1277103.0	739916.0	0.243790	0.545813
     29948.81	0.13915	1852989.0	1452106.0	841186.0	0.243785	0.545957
     29949.32	0.11947	1588797.0	1245157.0	721638.0	0.243715	0.545493
     29949.84	0.15373	2057560.0	1612927.0	934405.0	0.243470	0.545896
     29950.36	0.11625	1547317.0	1212502.0	702904.0	0.243836	0.545221
     29950.87	0.12946	1726458.0	1353015.0	784178.0	0.243736	0.545455
     29951.39	0.14293	1906973.0	1494794.0	866672.0	0.243529	0.545083
     29951.90	0.11625	1537253.0	1205089.0	698493.0	0.243444	0.545384
     29952.42	0.13571	1791035.0	1404548.0	814513.0	0.243078	0.544880
     29952.94	0.12206	1625650.0	1274549.0	738933.0	0.243315	0.545140
     29953.45	0.14165	1859721.0	1457334.0	845108.0	0.243818	0.544900
     29953.97	0.13922	1847745.0	1448410.0	839781.0	0.243500	0.545081
     29954.48	0.12163	1601639.0	1255793.0	728372.0	0.243260	0.544711
     29955.00	0.13317	1765176.0	1384407.0	802981.0	0.242979	0.544696
     29955.52	0.14139	1896265.0	1487113.0	862313.0	0.243050	0.544974
     29956.03	0.12659	1693933.0	1328316.0	770448.0	0.243141	0.544695
     29956.55	0.12833	1700452.0	1333226.0	773669.0	0.243293	0.544213
     29957.07	0.12285	1640545.0	1286606.0	746530.0	0.243021	0.544327
     29957.58	0.12966	1712776.0	1343132.0	779575.0	0.243111	0.544011
     29958.10	0.12836	1689541.0	1324963.0	769035.0	0.243072	0.544003
     29958.61	0.13222	1770727.0	1388666.0	806116.0	0.243047	0.543871
     29959.13	0.11854	1547136.0	1213179.0	704623.0	0.243161	0.543337
     29959.65	0.12567	1658851.0	1301036.0	755288.0	0.242964	0.543817
     29960.16	0.12249	1628130.0	1276803.0	741228.0	0.243073	0.543806
     29960.68	0.12847	1704528.0	1337216.0	775912.0	0.242698	0.544306
     29961.20	0.11899	1579186.0	1238843.0	719508.0	0.242732	0.543366
     29961.71	0.12496	1632819.0	1280645.0	743760.0	0.242944	0.543401
     29962.23	0.13136	1725104.0	1353156.0	786248.0	0.242848	0.542923
     29962.75	0.11802	1558920.0	1222828.0	710627.0	0.242827	0.542774
     29963.26	0.12570	1672650.0	1312194.0	762499.0	0.242709	0.542855
     29963.78	0.12000	1565864.0	1228170.0	713662.0	0.242912	0.542871
     29964.30	0.11866	1593883.0	1250534.0	726724.0	0.242603	0.542779
     29964.81	0.11319	1500775.0	1177225.0	684314.0	0.242822	0.542498
     29965.33	0.12760	1674643.0	1314355.0	764119.0	0.242254	0.542378
     29965.84	0.11417	1502042.0	1178665.0	685253.0	0.242443	0.542350
     29966.36	0.13228	1763464.0	1384120.0	804430.0	0.242215	0.542686
     29966.88	0.10675	1434643.0	1125899.0	654550.0	0.242334	0.542389
     29967.39	0.13003	1757331.0	1379228.0	802057.0	0.242272	0.542100
     29967.91	0.14714	1982097.0	1555194.0	904551.0	0.242555	0.541917
     29968.43	0.11992	1613192.0	1265757.0	736345.0	0.242544	0.541727
     29968.94	0.11510	1515014.0	1189039.0	691932.0	0.242279	0.541413
     29969.46	0.13224	1759611.0	1381109.0	803377.0	0.242206	0.541818
     29969.98	0.13541	1815762.0	1425501.0	828779.0	0.241982	0.542325
     29970.49	0.12103	1612970.0	1265806.0	736715.0	0.242368	0.541263
     29971.01	0.13495	1807280.0	1418608.0	825521.0	0.242147	0.541417
     29971.53	0.12437	1663486.0	1305524.0	759869.0	0.242311	0.541214
     29972.04	0.14150	1884416.0	1479348.0	861230.0	0.242017	0.540995
     29972.56	0.11563	1552671.0	1218823.0	709291.0	0.242091	0.541375
     29973.08	0.11096	1488723.0	1168838.0	680458.0	0.241909	0.540999
     29973.60	0.12360	1650935.0	1296179.0	754826.0	0.241921	0.540689
     29974.11	0.13033	1733596.0	1360882.0	792446.0	0.242065	0.540764
     29974.63	0.13176	1744380.0	1369405.0	797524.0	0.242023	0.540620
     29975.15	0.12775	1709106.0	1342304.0	781809.0	0.241583	0.540532
     29975.66	0.12978	1734855.0	1362050.0	793451.0	0.241933	0.540354
     29976.18	0.14730	1944625.0	1526777.0	889502.0	0.241910	0.540253
     29976.70	0.15216	2014854.0	1582812.0	921761.0	0.241344	0.540672
     29977.21	0.087114	1143251.0	897801.0	523364.0	0.241683	0.539671
     29977.73	0.12779	1684503.0	1322596.0	770795.0	0.241874	0.539929
     29978.25	0.13203	1746627.0	1371868.0	799215.0	0.241513	0.540299
     29978.76	0.12870	1708878.0	1341921.0	781946.0	0.241735	0.540072
     29979.28	0.12161	1599391.0	1256232.0	732142.0	0.241506	0.539898
     29979.80	0.13520	1776952.0	1396072.0	813698.0	0.241237	0.539829
     29980.32	0.13267	1743390.0	1369496.0	798532.0	0.241389	0.539423
     29980.83	0.17422	2318603.0	1821489.0	1061619.0	0.241311	0.539859
     29981.35	0.087454	1158340.0	909642.0	530344.0	0.241692	0.539525
     29981.87	0.11328	1520652.0	1194784.0	696500.0	0.241174	0.539653
     29982.38	0.10992	1464035.0	1150075.0	670529.0	0.241369	0.539515
     29982.90	0.11143	1476451.0	1159769.0	676486.0	0.241420	0.539064
     29983.42	0.12042	1618884.0	1271915.0	741905.0	0.241213	0.539058
     29983.94	0.13825	1824900.0	1433908.0	836571.0	0.241122	0.538847
     29984.45	0.11617	1549960.0	1217607.0	710199.0	0.241342	0.539098
     29984.97	0.14525	1899743.0	1492284.0	870603.0	0.241411	0.538877
     29985.49	0.088180	1176169.0	924191.0	539330.0	0.241099	0.538591
     29986.00	0.11139	1463583.0	1150180.0	671354.0	0.240969	0.538377
     29986.52	0.10820	1417230.0	1113630.0	649605.0	0.241079	0.539016
     29987.04	0.11513	1506826.0	1184007.0	691452.0	0.241101	0.537866
     29987.56	0.11551	1533318.0	1204903.0	703126.0	0.241035	0.538618
     29988.07	0.13661	1791711.0	1408043.0	821987.0	0.240970	0.538231
     29988.59	0.15079	1986975.0	1561373.0	911821.0	0.241048	0.537877
     29989.11	0.18159	2411101.0	1894987.0	1106663.0	0.240872	0.537863
     29989.63	0.088649	1179349.0	926892.0	541479.0	0.240881	0.537533
     29990.14	0.10555	1390865.0	1093178.0	638210.0	0.240837	0.538177
     29990.66	0.11391	1501214.0	1180290.0	689201.0	0.240514	0.537982
     29991.18	0.12654	1691121.0	1328909.0	776378.0	0.241033	0.537474
     29991.70	0.12853	1711745.0	1345649.0	786099.0	0.240637	0.537549
     29992.21	0.13401	1768695.0	1390557.0	812319.0	0.240538	0.537567
     29992.73	0.12986	1697768.0	1334977.0	779890.0	0.240400	0.537516
     29993.25	0.19846	2633261.0	2069999.0	1209550.0	0.240675	0.537300
     29993.77	0.082479	1104683.0	868515.0	507340.0	0.240529	0.537603
     29994.28	0.11459	1513170.0	1189653.0	695509.0	0.240545	0.536773
     29994.80	0.10997	1450822.0	1140896.0	666522.0	0.240316	0.537496
     29995.32	0.13638	1794614.0	1410791.0	824671.0	0.240639	0.536921
     29995.84	0.13284	1722424.0	1354047.0	791422.0	0.240635	0.537022
     29996.35	0.14377	1902607.0	1495923.0	874460.0	0.240482	0.536892
     29996.87	0.15666	2056150.0	1616936.0	945293.0	0.240302	0.536793
     29997.39	0.16437	2179166.0	1713161.0	1001692.0	0.240602	0.536650
     29997.91	0.078187	1035547.0	814564.0	476327.0	0.240032	0.536548
     29998.42	0.11596	1540212.0	1211220.0	708236.0	0.240292	0.536606
     29998.94	0.12912	1714425.0	1348598.0	788700.0	0.240012	0.536435
     29999.46	0.12872	1701143.0	1337945.0	782830.0	0.240166	0.535975
     29999.98	0.12268	1607656.0	1264503.0	739845.0	0.240098	0.535994
     30000.50	0.12638	1684598.0	1324875.0	775030.0	0.240209	0.536172
     30001.01	0.12789	1709559.0	1344547.0	786678.0	0.240178	0.535993
     30001.53	0.12248	1603273.0	1261088.0	738250.0	0.240072	0.535448
     30002.05	0.12937	1709203.0	1344676.0	786951.0	0.239874	0.535742
     30002.57	0.12137	1626382.0	1279332.0	748743.0	0.240020	0.535698
     30003.08	0.12236	1641769.0	1291694.0	755828.0	0.239820	0.535896
     30003.60	0.11823	1586850.0	1248489.0	730984.0	0.239817	0.535298
     30004.12	0.13598	1792596.0	1410156.0	825904.0	0.239965	0.534977
     30004.64	0.11906	1584411.0	1246814.0	729938.0	0.239621	0.535387
     30005.16	0.12607	1682261.0	1323378.0	774779.0	0.239951	0.535365
     30005.67	0.10608	1385836.0	1090542.0	638747.0	0.239629	0.534922
     30006.19	0.12125	1613668.0	1269825.0	743584.0	0.239631	0.535153
     30006.71	0.12912	1716349.0	1349991.0	790729.0	0.240101	0.534898
     30007.23	0.11734	1541645.0	1213021.0	710526.0	0.239736	0.534864
     30007.75	0.13374	1789882.0	1408527.0	825147.0	0.239605	0.534738
     30008.26	0.11768	1558912.0	1226287.0	718493.0	0.239997	0.534590
     30008.78	0.12057	1602141.0	1261037.0	738676.0	0.239406	0.534830
     30009.30	0.13749	1810811.0	1424819.0	835235.0	0.239730	0.534087
     30009.82	0.11697	1538687.0	1211173.0	709625.0	0.239340	0.534608
     30010.34	0.12866	1705602.0	1342446.0	786574.0	0.239425	0.534562
     30010.86	0.13894	1829431.0	1440014.0	843957.0	0.239352	0.534307
     30011.37	0.12314	1641284.0	1292012.0	757247.0	0.239278	0.534266
     30011.89	0.12897	1687675.0	1328594.0	778476.0	0.239231	0.534538
     30012.41	0.13253	1762802.0	1387462.0	813372.0	0.239428	0.534043
     30012.93	0.11779	1573923.0	1238818.0	726336.0	0.239414	0.533900
     30013.45	0.12398	1654105.0	1302019.0	763369.0	0.239344	0.533930
     30013.96	0.12168	1616561.0	1272833.0	746589.0	0.239056	0.533486
     30014.48	0.12590	1655574.0	1303401.0	764428.0	0.239171	0.533604
     30015.00	0.12413	1628167.0	1281723.0	751932.0	0.239250	0.533315
     30015.52	0.12699	1684178.0	1325948.0	777761.0	0.239150	0.533464
     30016.04	0.12877	1714144.0	1349668.0	791372.0	0.239055	0.533846
     30016.56	0.13328	1757405.0	1383349.0	811619.0	0.239331	0.533232
     30017.07	0.13016	1725751.0	1358797.0	797458.0	0.239063	0.532926
     30017.59	0.12491	1633909.0	1286682.0	755387.0	0.238908	0.532592
     30018.11	0.13120	1742846.0	1372278.0	805108.0	0.239047	0.533251
     30018.63	0.13525	1777348.0	1399722.0	821769.0	0.238849	0.532570
     30019.15	0.12623	1640220.0	1291854.0	758471.0	0.238752	0.532529
     30019.67	0.12999	1713383.0	1349105.0	792178.0	0.239028	0.532411
     30020.18	0.12392	1630705.0	1284434.0	753882.0	0.238694	0.532838
     30020.70	0.12434	1637879.0	1290185.0	757736.0	0.238616	0.532206
     30021.22	0.13097	1720207.0	1355004.0	796096.0	0.238640	0.531840
     30021.74	0.12083	1579481.0	1244345.0	730673.0	0.238487	0.532399
     30022.26	0.12082	1575535.0	1241285.0	729151.0	0.238448	0.532022
     30022.78	0.12851	1670235.0	1315706.0	773075.0	0.238591	0.531753
     30023.30	0.12051	1571078.0	1237551.0	727316.0	0.238628	0.531529
     30023.81	0.12205	1604592.0	1263991.0	742686.0	0.238595	0.531756
     30024.33	0.12581	1649158.0	1299203.0	763489.0	0.238514	0.531608
     30024.85	0.11383	1507568.0	1187808.0	698246.0	0.238388	0.531293
     30025.37	0.12439	1629960.0	1284355.0	754865.0	0.238299	0.531473
     30025.89	0.11947	1555125.0	1225088.0	720228.0	0.238543	0.531200
     30026.41	0.10087	1346257.0	1060848.0	623572.0	0.238260	0.531360
     30026.93	0.10649	1418862.0	1117889.0	657240.0	0.238413	0.531148
     30027.44	0.12377	1638643.0	1291333.0	758919.0	0.238193	0.531535
     30027.96	0.11645	1549013.0	1220622.0	717715.0	0.238257	0.531043
     30028.48	0.13315	1756557.0	1384187.0	814237.0	0.238243	0.530617
     30029.00	0.11473	1515457.0	1194202.0	702122.0	0.238239	0.531126
     30029.52	0.14124	1870266.0	1473676.0	866971.0	0.238321	0.530510
     30030.04	0.13253	1731886.0	1364975.0	803137.0	0.238075	0.530366
     30030.56	0.12330	1613874.0	1271866.0	748135.0	0.238152	0.530657
     30031.08	0.12730	1674489.0	1320123.0	776727.0	0.237783	0.530391
     30031.60	0.12535	1636723.0	1290034.0	759297.0	0.238027	0.530031
     30032.11	0.13255	1753774.0	1382033.0	813238.0	0.238214	0.530287
     30032.63	0.13494	1771096.0	1395640.0	821190.0	0.238245	0.530354
     30033.15	0.14912	1933528.0	1524421.0	897424.0	0.237732	0.529842
     30033.67	0.14229	1890887.0	1490590.0	877374.0	0.237874	0.529994
     30034.19	0.095184	1261737.0	994405.0	585519.0	0.238100	0.529646
     30034.71	0.12244	1588209.0	1251904.0	737304.0	0.237941	0.529421
     30035.23	0.12540	1645647.0	1297464.0	764070.0	0.237722	0.529507
     30035.75	0.14369	1877232.0	1480014.0	871556.0	0.237747	0.529527
     30036.27	0.13375	1761063.0	1388326.0	817713.0	0.237819	0.529343
     30036.78	0.12912	1677534.0	1322473.0	779164.0	0.237821	0.529037
     30037.30	0.14156	1855606.0	1463379.0	862514.0	0.237463	0.528652
     30037.82	0.13863	1798393.0	1418585.0	835476.0	0.237234	0.529414
     30038.34	0.11019	1418154.0	1118749.0	659178.0	0.237145	0.528973
     30038.86	0.14191	1830331.0	1443292.0	850665.0	0.237570	0.528663
     30039.38	0.12387	1626673.0	1282677.0	756027.0	0.237588	0.528627
     30039.90	0.13479	1740435.0	1372634.0	809089.0	0.237404	0.528578
     30040.42	0.12513	1609573.0	1269399.0	748709.0	0.237425	0.527948
     30040.94	0.12198	1579362.0	1245730.0	734316.0	0.237299	0.528538
     30041.46	0.11992	1552675.0	1224585.0	722473.0	0.237377	0.527677
     30041.98	0.12511	1664674.0	1313165.0	774212.0	0.237189	0.528350
     30042.50	0.12733	1655724.0	1305811.0	770093.0	0.237414	0.528068
     30043.01	0.12199	1593894.0	1257054.0	741325.0	0.237409	0.528087
     30043.53	0.13207	1709943.0	1348630.0	795494.0	0.237371	0.527881
     30044.05	0.12408	1623727.0	1280895.0	755579.0	0.237165	0.527830
     30044.57	0.11857	1543246.0	1217400.0	718074.0	0.237171	0.527900
     30045.09	0.12266	1617144.0	1275459.0	752283.0	0.237356	0.527949
     30045.61	0.12302	1620477.0	1278678.0	753997.0	0.236894	0.528194
     30046.13	0.11523	1510052.0	1191461.0	703058.0	0.236964	0.527496
     30046.65	0.13457	1761039.0	1389513.0	820185.0	0.236951	0.527179
     30047.17	0.10686	1406640.0	1109873.0	655017.0	0.236958	0.527340
     30047.69	0.12348	1627525.0	1284023.0	758106.0	0.237062	0.526930
     30048.21	0.11960	1559496.0	1230602.0	726573.0	0.236859	0.526920
     30048.73	0.11778	1543195.0	1217811.0	718687.0	0.236800	0.527384
     30049.25	0.14360	1908872.0	1506311.0	889119.0	0.236849	0.527188
