# Diamond Light Source
# Instrument: B18-CORE XAS Date: Thu, 28 Jul 2016 01:47:04 BST
# Ring energy:   3.0
# Ring current - start: 299.4
# Primary slits:  vertical gap=  2.4; horizontal gap= 52.0; vertical offset=  0.4; horizontal offset= -1.0
# Secondary slits:  vertical gap=  3.5; horizontal gap= 23.0; vertical offset=  5.3; horizontal offset= -14.5
# OH Mirror Coating: Pt
# White beam filter: 140um PyC
# Crystal cut: Si(311)
# PostDCM slits:  vertical gap= 18.0; horizontal gap= 28.0; vertical offset= -9.1; horizontal offset= -16.5
# Experimental slits:  vertical gap= 28.6; horizontal gap= 45.0; vertical offset=  5.7; horizontal offset= -17.5
# HR Mirror : out; Y: 37.8; Pitch:  0.3; Coating: Pt
# Mirror 2: Pitch:  2.3; Height: -6.4; Yaw: -1.6; Bend:  0.8;
# I0 Stanford sensitivity: 20 nA/V Offsets: 20 pA
# It Stanford sensitivity: 100 nA/V Offsets: 1 pA
# Iref Stanford sensitivity: 20 nA/V Offsets: 1 pA
#
# Ascii output file name: 'Andrea_Sn//ascii/262920_PtSn_OCO_H2_Abu_2.dat'
# Nexus output file: '/dls/b18/data/2016/sp10306-9/Andrea_Sn//nexus/262920_PtSn_OCO_H2_Abu_2.nxs'
# XML folder and files:
# /dls/b18/data/2016/sp10306-9/xml/Andrea_Sn/
# QEXAFS_Parameters
# Sample_Parameters
# Detector_Parameters
# Output_Parameters
# The contents of these files are also stored in the nexus file.
#
# Sample name: PtSn_OCO_H2_Abu
# Sample description: default sample description
# Additional comments: default additional comments
# command: qexafs_energy 29000.0 30050.0 2094 263.53 qexafs_counterTimer01
#
#
# qexafs_energy	   time	       I0	       It	     Iref	  lnI0It	 lnItIref
     29000.24	0.13896	2225046.0	1773144.0	3665908.0	0.227023	-0.726322
     29000.73	0.14575	2330763.0	1857280.0	3840640.0	0.227083	-0.726526
     29001.21	0.17227	2752123.0	2193112.0	4534797.0	0.227051	-0.726459
     29001.69	0.084000	1346083.0	1072367.0	2217926.0	0.227331	-0.726704
     29002.18	0.12603	2021718.0	1610797.0	3329143.0	0.227219	-0.725986
     29002.66	0.12238	1951552.0	1555441.0	3216046.0	0.226866	-0.726394
     29003.14	0.13004	2082189.0	1659229.0	3429653.0	0.227067	-0.726106
     29003.63	0.12828	2043398.0	1628277.0	3367210.0	0.227092	-0.726562
     29004.11	0.12030	1930166.0	1538253.0	3180343.0	0.226959	-0.726342
     29004.59	0.12874	2057352.0	1639593.0	3389511.0	0.226972	-0.726238
     29005.08	0.12457	1978700.0	1577120.0	3261285.0	0.226840	-0.726521
     29005.56	0.12735	2037011.0	1623711.0	3357126.0	0.226769	-0.726371
     29006.05	0.11758	1876156.0	1495196.0	3091123.0	0.226968	-0.726277
     29006.53	0.13326	2135734.0	1702671.0	3520086.0	0.226612	-0.726287
     29007.01	0.12348	1976227.0	1575084.0	3257329.0	0.226881	-0.726599
     29007.50	0.12361	1982091.0	1580074.0	3267935.0	0.226681	-0.726687
     29007.98	0.13070	2088796.0	1665117.0	3443253.0	0.226692	-0.726521
     29008.46	0.12606	2016999.0	1607843.0	3324340.0	0.226717	-0.726378
     29008.95	0.10857	1742872.0	1388910.0	2872113.0	0.227015	-0.726529
     29009.43	0.11432	1829195.0	1458554.0	3015457.0	0.226430	-0.726306
     29009.92	0.12202	1955577.0	1559063.0	3224341.0	0.226600	-0.726644
     29010.40	0.11259	1806271.0	1440033.0	2978131.0	0.226598	-0.726630
     29010.88	0.13365	2150479.0	1714389.0	3545304.0	0.226634	-0.726567
     29011.37	0.13061	2095424.0	1670643.0	3454163.0	0.226547	-0.726372
     29011.85	0.12221	1964536.0	1566331.0	3238525.0	0.226520	-0.726382
     29012.34	0.12853	2065663.0	1647125.0	3406276.0	0.226420	-0.726588
     29012.82	0.13188	2120000.0	1690853.0	3496030.0	0.226183	-0.726395
     29013.30	0.13113	2111847.0	1684246.0	3482939.0	0.226245	-0.726558
     29013.79	0.11726	1889865.0	1506774.0	3115480.0	0.226534	-0.726412
     29014.27	0.12721	2043061.0	1629394.0	3369660.0	0.226241	-0.726604
     29014.76	0.13774	2218286.0	1769145.0	3658224.0	0.226238	-0.726481
     29015.24	0.12094	1945868.0	1551809.0	3208746.0	0.226287	-0.726459
     29015.72	0.12117	1953812.0	1558559.0	3222397.0	0.226021	-0.726364
     29016.21	0.12745	2056084.0	1639587.0	3390175.0	0.226359	-0.726437
     29016.69	0.12444	2006123.0	1600206.0	3308620.0	0.226072	-0.726399
     29017.18	0.12382	1995328.0	1591564.0	3290713.0	0.226091	-0.726387
     29017.66	0.12895	2076473.0	1656363.0	3424714.0	0.226047	-0.726394
     29018.14	0.12542	2018560.0	1609952.0	3328913.0	0.226180	-0.726441
     29018.63	0.12561	2019730.0	1611457.0	3330967.0	0.225825	-0.726124
     29019.11	0.14225	2290530.0	1827040.0	3777566.0	0.226086	-0.726383
     29019.60	0.12585	2027207.0	1617233.0	3343290.0	0.225942	-0.726239
     29020.08	0.12919	2077657.0	1657238.0	3426814.0	0.226088	-0.726479
     29020.57	0.12263	1970606.0	1571730.0	3250517.0	0.226164	-0.726637
     29021.05	0.12726	2044243.0	1631225.0	3373656.0	0.225696	-0.726666
     29021.53	0.13696	2204094.0	1758645.0	3636949.0	0.225773	-0.726602
     29022.02	0.12215	1966878.0	1569106.0	3243855.0	0.225941	-0.726256
     29022.50	0.13510	2173681.0	1734541.0	3585474.0	0.225679	-0.726148
     29022.99	0.12138	1955255.0	1560193.0	3226150.0	0.225711	-0.726480
     29023.47	0.14827	2385418.0	1903826.0	3936004.0	0.225509	-0.726300
     29023.96	0.10626	1711509.0	1365923.0	2824509.0	0.225545	-0.726504
     29024.44	0.12081	1944581.0	1551568.0	3208463.0	0.225780	-0.726526
     29024.92	0.11291	1819621.0	1451805.0	3002275.0	0.225821	-0.726563
     29025.41	0.12443	2003958.0	1599124.0	3306572.0	0.225668	-0.726456
     29025.89	0.12926	2081350.0	1661158.0	3434612.0	0.225502	-0.726389
     29026.38	0.11120	1792650.0	1430733.0	2959158.0	0.225508	-0.726718
     29026.86	0.12669	2036488.0	1625471.0	3360713.0	0.225429	-0.726356
     29027.35	0.12293	1974489.0	1575846.0	3257850.0	0.225517	-0.726275
     29027.83	0.10444	1679390.0	1340530.0	2771306.0	0.225366	-0.726254
     29028.32	0.10303	1656962.0	1322379.0	2734030.0	0.225553	-0.726344
     29028.80	0.11664	1879555.0	1500339.0	3102567.0	0.225344	-0.726539
     29029.28	0.12149	1959357.0	1563992.0	3234146.0	0.225375	-0.726523
     29029.77	0.11896	1913133.0	1527211.0	3158531.0	0.225299	-0.726664
     29030.25	0.14536	2340382.0	1868171.0	3863646.0	0.225354	-0.726651
     29030.74	0.12177	1956433.0	1561436.0	3228487.0	0.225517	-0.726408
     29031.22	0.14168	2274842.0	1816041.0	3754392.0	0.225252	-0.726267
     29031.71	0.11949	1924791.0	1536576.0	3177338.0	0.225261	-0.726487
     29032.19	0.096265	1545847.0	1234667.0	2552422.0	0.224771	-0.726241
     29032.68	0.15719	2530458.0	2020038.0	4177645.0	0.225284	-0.726631
     29033.16	0.13195	2123287.0	1695441.0	3505639.0	0.225022	-0.726430
     29033.65	0.11956	1923398.0	1535682.0	3175236.0	0.225119	-0.726407
     29034.13	0.13851	2222690.0	1774772.0	3670169.0	0.225046	-0.726566
     29034.62	0.16192	2605387.0	2080749.0	4302079.0	0.224853	-0.726370
     29035.10	0.10245	1645329.0	1313791.0	2716632.0	0.225024	-0.726476
     29035.58	0.10972	1764036.0	1408634.0	2912874.0	0.224984	-0.726520
     29036.07	0.13270	2132723.0	1703039.0	3521654.0	0.224985	-0.726516
     29036.55	0.12958	2082422.0	1663286.0	3439184.0	0.224736	-0.726439
     29037.04	0.13406	2155535.0	1721060.0	3558869.0	0.225099	-0.726502
     29037.52	0.13441	2157788.0	1723746.0	3564454.0	0.224584	-0.726511
     29038.01	0.12972	2086787.0	1666672.0	3446035.0	0.224797	-0.726395
     29038.49	0.14323	2294483.0	1832317.0	3788798.0	0.224926	-0.726468
     29038.98	0.12390	1986429.0	1586671.0	3281032.0	0.224700	-0.726520
     29039.46	0.13072	2101035.0	1678082.0	3469316.0	0.224779	-0.726306
     29039.95	0.12841	2061786.0	1646588.0	3404176.0	0.224867	-0.726298
     29040.43	0.12416	1994868.0	1593457.0	3295089.0	0.224672	-0.726527
     29040.92	0.13307	2133993.0	1704496.0	3524261.0	0.224725	-0.726401
     29041.40	0.12143	1949758.0	1557563.0	3220705.0	0.224583	-0.726478
     29041.89	0.13280	2133869.0	1704650.0	3525330.0	0.224577	-0.726614
     29042.37	0.12416	1990589.0	1590325.0	3288486.0	0.224492	-0.726489
     29042.86	0.12190	1951994.0	1559687.0	3225451.0	0.224366	-0.726588
     29043.34	0.12262	1971383.0	1574999.0	3257251.0	0.224481	-0.726629
     29043.83	0.13032	2090333.0	1670059.0	3453352.0	0.224464	-0.726486
     29044.31	0.12298	1970489.0	1574687.0	3255444.0	0.224225	-0.726272
     29044.80	0.12896	2068169.0	1652738.0	3417412.0	0.224230	-0.726450
     29045.28	0.12656	2032229.0	1624263.0	3358497.0	0.224079	-0.726439
     29045.77	0.11610	1863602.0	1488979.0	3078914.0	0.224421	-0.726486
     29046.25	0.12337	1980119.0	1582246.0	3272093.0	0.224312	-0.726584
     29046.74	0.11427	1831695.0	1463649.0	3026323.0	0.224309	-0.726416
     29047.22	0.12649	2030025.0	1621658.0	3353148.0	0.224599	-0.726451
     29047.71	0.11734	1881276.0	1503231.0	3108327.0	0.224333	-0.726468
     29048.19	0.11042	1769012.0	1413795.0	2923313.0	0.224144	-0.726440
     29048.68	0.13161	2107722.0	1684482.0	3482742.0	0.224150	-0.726362
     29049.16	0.12084	1937775.0	1548487.0	3201989.0	0.224262	-0.726494
     29049.65	0.12165	1952208.0	1560241.0	3225465.0	0.224121	-0.726237
     29050.13	0.12753	2047595.0	1636714.0	3384423.0	0.223975	-0.726493
     29050.62	0.13395	2149195.0	1717805.0	3550992.0	0.224046	-0.726180
     29051.10	0.13288	2130752.0	1703437.0	3521714.0	0.223827	-0.726300
     29051.59	0.12553	2012045.0	1608266.0	3324585.0	0.223995	-0.726188
     29052.08	0.13910	2233724.0	1785479.0	3691556.0	0.223983	-0.726361
     29052.56	0.11919	1911277.0	1527732.0	3158934.0	0.223987	-0.726450
     29053.05	0.12777	2049819.0	1638299.0	3386831.0	0.224093	-0.726236
     29053.53	0.11344	1820350.0	1455221.0	3008189.0	0.223871	-0.726180
     29054.02	0.12215	1959484.0	1566393.0	3237888.0	0.223906	-0.726146
     29054.50	0.12742	2037533.0	1628994.0	3367266.0	0.223777	-0.726138
     29054.99	0.13033	2089670.0	1670874.0	3454034.0	0.223659	-0.726196
     29055.47	0.13245	2123988.0	1698308.0	3510636.0	0.223663	-0.726165
     29055.96	0.12292	1969799.0	1574899.0	3255507.0	0.223740	-0.726157
     29056.44	0.14302	2291223.0	1831626.0	3786723.0	0.223882	-0.726297
     29056.93	0.13165	2105212.0	1683059.0	3479241.0	0.223803	-0.726201
     29057.41	0.12010	1926857.0	1540684.0	3184495.0	0.223664	-0.726067
     29057.90	0.12046	1926129.0	1540108.0	3183821.0	0.223660	-0.726230
     29058.39	0.13889	2222390.0	1776742.0	3672706.0	0.223802	-0.726147
     29058.87	0.12205	1955930.0	1563974.0	3232821.0	0.223636	-0.726125
     29059.36	0.13350	2139568.0	1711043.0	3537211.0	0.223501	-0.726235
     29059.84	0.12474	2000013.0	1599362.0	3305936.0	0.223549	-0.726115
     29060.33	0.12553	2009334.0	1607047.0	3321549.0	0.223405	-0.726033
     29060.81	0.12635	2018713.0	1614484.0	3336331.0	0.223445	-0.725856
     29061.30	0.11316	1810424.0	1447653.0	2992485.0	0.223617	-0.726161
     29061.78	0.12823	2055908.0	1644500.0	3399415.0	0.223281	-0.726167
     29062.27	0.12301	1971228.0	1576867.0	3258985.0	0.223217	-0.725976
     29062.76	0.13239	2117744.0	1693714.0	3500392.0	0.223428	-0.725951
     29063.24	0.11942	1910420.0	1528474.0	3159348.0	0.223053	-0.726096
     29063.73	0.13879	2219425.0	1775537.0	3669869.0	0.223145	-0.726053
     29064.21	0.13866	2217750.0	1773800.0	3666588.0	0.223369	-0.726137
     29064.70	0.12040	1922352.0	1537716.0	3178274.0	0.223251	-0.726040
     29065.18	0.085579	1369739.0	1095631.0	2264350.0	0.223290	-0.725957
     29065.67	0.093020	1489655.0	1191532.0	2462736.0	0.223305	-0.726033
     29066.16	0.12483	1990252.0	1592467.0	3291234.0	0.222977	-0.725978
     29066.64	0.10359	1655919.0	1324651.0	2738065.0	0.223207	-0.726102
     29067.13	0.12714	2031867.0	1625628.0	3359493.0	0.223061	-0.725896
     29067.61	0.13953	2232903.0	1786453.0	3692204.0	0.223070	-0.725991
     29068.10	0.15807	2527760.0	2022123.0	4179285.0	0.223186	-0.725992
     29068.59	0.10093	1613770.0	1291015.0	2667691.0	0.223144	-0.725785
     29069.07	0.10990	1754862.0	1404228.0	2901626.0	0.222903	-0.725784
     29069.56	0.12791	2035279.0	1628342.0	3364642.0	0.223071	-0.725759
     29070.04	0.12564	2004418.0	1603978.0	3313721.0	0.222867	-0.725585
     29070.53	0.13926	2226387.0	1781297.0	3679884.0	0.223038	-0.725539
     29071.01	0.12180	1947758.0	1559153.0	3220756.0	0.222536	-0.725473
     29071.50	0.13496	2150921.0	1721483.0	3556309.0	0.222710	-0.725537
     29071.99	0.20097	3212246.0	2571206.0	5311326.0	0.222595	-0.725466
     29072.47	0.072083	1150579.0	920805.0	1901680.0	0.222772	-0.725245
     29072.96	0.11248	1798926.0	1439497.0	2974352.0	0.222896	-0.725732
     29073.44	0.13562	2169783.0	1736897.0	3587923.0	0.222527	-0.725473
     29073.93	0.12150	1943177.0	1555139.0	3212187.0	0.222759	-0.725387
     29074.42	0.12473	1993878.0	1596085.0	3296455.0	0.222528	-0.725294
     29074.90	0.14273	2276985.0	1822770.0	3765543.0	0.222495	-0.725535
     29075.39	0.13520	2153897.0	1724044.0	3560847.0	0.222606	-0.725326
     29075.87	0.16609	2652421.0	2123076.0	4385838.0	0.222607	-0.725515
     29076.36	0.10876	1738017.0	1391414.0	2873611.0	0.222424	-0.725249
     29076.85	0.11671	1860484.0	1489389.0	3075505.0	0.222471	-0.725103
     29077.33	0.13591	2168927.0	1736506.0	3586171.0	0.222358	-0.725210
     29077.82	0.12393	1973790.0	1580095.0	3261438.0	0.222471	-0.724683
     29078.31	0.13363	2126901.0	1702731.0	3515381.0	0.222433	-0.724914
     29078.79	0.12828	2043821.0	1636109.0	3378242.0	0.222500	-0.725035
     29079.28	0.12327	1968650.0	1576603.0	3254300.0	0.222075	-0.724705
     29079.76	0.13678	2183859.0	1748444.0	3609212.0	0.222367	-0.724763
     29080.25	0.11284	1803231.0	1443915.0	2980714.0	0.222222	-0.724805
     29080.74	0.12364	1973540.0	1580751.0	3262489.0	0.221929	-0.724590
     29081.22	0.12598	2010182.0	1609931.0	3323715.0	0.222034	-0.724892
     29081.71	0.12272	1959278.0	1569183.0	3238372.0	0.222021	-0.724516
     29082.20	0.12945	2060848.0	1650490.0	3406786.0	0.222045	-0.724697
     29082.68	0.12107	1927928.0	1543830.0	3186595.0	0.222180	-0.724687
     29083.17	0.13923	2212767.0	1772330.0	3657185.0	0.221949	-0.724399
     29083.65	0.10884	1733823.0	1388883.0	2865385.0	0.221829	-0.724203
     29084.14	0.12202	1945217.0	1558234.0	3214122.0	0.221820	-0.724001
     29084.63	0.12347	1965387.0	1573916.0	3247439.0	0.222122	-0.724300
     29085.11	0.11370	1807124.0	1447503.0	2985972.0	0.221897	-0.724085
     29085.60	0.11685	1861532.0	1490919.0	3076394.0	0.222007	-0.724365
     29086.09	0.13177	2095381.0	1678518.0	3462745.0	0.221824	-0.724150
     29086.57	0.11712	1866479.0	1495188.0	3083747.0	0.221802	-0.723893
     29087.06	0.13167	2094313.0	1677655.0	3460681.0	0.221829	-0.724068
     29087.55	0.10371	1650147.0	1322019.0	2727053.0	0.221704	-0.724061
     29088.03	0.13473	2146678.0	1719805.0	3547189.0	0.221711	-0.723945
     29088.52	0.14040	2230325.0	1786467.0	3684687.0	0.221907	-0.723946
     29089.01	0.13259	2101005.0	1683083.0	3471142.0	0.221789	-0.723856
     29089.49	0.12504	1978493.0	1584917.0	3269222.0	0.221803	-0.724020
     29089.98	0.13505	2147754.0	1720775.0	3548398.0	0.221648	-0.723721
     29090.47	0.12078	1919552.0	1537927.0	3171556.0	0.221656	-0.723787
     29090.95	0.13441	2135904.0	1711214.0	3527777.0	0.221687	-0.723465
     29091.44	0.11621	1852452.0	1484232.0	3059890.0	0.221613	-0.723482
     29091.93	0.11873	1881407.0	1507889.0	3107973.0	0.221309	-0.723260
     29092.41	0.12652	2012778.0	1612853.0	3324454.0	0.221511	-0.723301
     29092.90	0.12485	1984855.0	1590140.0	3277231.0	0.221724	-0.723177
     29093.39	0.13030	2065048.0	1655133.0	3410565.0	0.221272	-0.722997
     29093.87	0.12463	1982980.0	1589049.0	3274495.0	0.221465	-0.723028
     29094.36	0.12717	2018470.0	1617862.0	3332976.0	0.221234	-0.722760
     29094.85	0.13001	2065126.0	1654925.0	3409147.0	0.221436	-0.722706
     29095.33	0.13268	2096139.0	1679722.0	3460469.0	0.221469	-0.722776
     29095.82	0.12459	1976134.0	1583492.0	3261557.0	0.221510	-0.722572
     29096.31	0.13178	2088326.0	1673646.0	3446734.0	0.221358	-0.722423
     29096.79	0.13470	2138264.0	1713834.0	3528815.0	0.221261	-0.722229
     29097.28	0.12304	1948262.0	1561347.0	3215395.0	0.221389	-0.722401
     29097.77	0.13043	2069780.0	1659156.0	3416064.0	0.221133	-0.722180
     29098.25	0.12536	1986625.0	1592101.0	3278062.0	0.221383	-0.722198
     29098.74	0.12935	2048918.0	1642212.0	3380448.0	0.221268	-0.721964
     29099.23	0.11728	1858517.0	1489767.0	3066943.0	0.221159	-0.722062
     29099.71	0.12725	2014669.0	1614307.0	3323278.0	0.221549	-0.722046
     29100.20	0.11372	1801954.0	1444654.0	2973114.0	0.221002	-0.721740
     29100.69	0.13362	2110926.0	1692602.0	3483430.0	0.220860	-0.721750
     29101.17	0.11957	1887387.0	1512791.0	3112718.0	0.221237	-0.721540
     29101.66	0.13647	2164986.0	1735457.0	3570436.0	0.221143	-0.721417
     29102.15	0.10667	1686406.0	1351823.0	2780565.0	0.221146	-0.721200
     29102.64	0.12273	1942409.0	1557202.0	3203097.0	0.221038	-0.721228
     29103.12	0.11066	1747767.0	1401356.0	2881496.0	0.220899	-0.720869
     29103.61	0.10558	1667554.0	1336603.0	2748636.0	0.221227	-0.720973
     29104.10	0.11758	1848077.0	1481521.0	3045270.0	0.221076	-0.720520
     29104.58	0.12024	1891251.0	1516558.0	3116700.0	0.220795	-0.720331
     29105.07	0.11512	1816621.0	1456456.0	2993819.0	0.220972	-0.720544
     29105.56	0.11315	1790428.0	1435456.0	2949912.0	0.220972	-0.720293
     29106.04	0.13138	2073317.0	1662297.0	3415973.0	0.220949	-0.720262
     29106.53	0.13320	2103616.0	1685951.0	3464101.0	0.221328	-0.720123
     29107.02	0.12235	1936508.0	1552605.0	3189161.0	0.220952	-0.719824
     29107.51	0.11876	1876761.0	1504703.0	3090304.0	0.220952	-0.719674
     29107.99	0.13872	2194438.0	1759465.0	3613780.0	0.220916	-0.719745
     29108.48	0.13283	2096932.0	1681689.0	3453146.0	0.220677	-0.719487
     29108.97	0.13062	2061849.0	1653586.0	3394910.0	0.220657	-0.719331
     29109.46	0.13038	2060265.0	1652314.0	3391443.0	0.220658	-0.719079
     29109.94	0.12396	1954200.0	1567430.0	3216404.0	0.220544	-0.718827
     29110.43	0.12865	2040034.0	1636254.0	3357243.0	0.220557	-0.718711
     29110.92	0.12249	1935624.0	1552707.0	3184961.0	0.220430	-0.718440
     29111.40	0.13623	2156863.0	1729233.0	3547297.0	0.220977	-0.718508
     29111.89	0.12152	1927212.0	1545670.0	3170033.0	0.220617	-0.718285
     29112.38	0.13259	2090590.0	1676287.0	3436900.0	0.220865	-0.717989
     29112.87	0.13193	2083083.0	1670892.0	3424623.0	0.220491	-0.717634
     29113.35	0.13316	2111788.0	1693315.0	3470604.0	0.220847	-0.717640
     29113.84	0.13930	2197367.0	1762320.0	3611113.0	0.220629	-0.717385
     29114.33	0.13752	2168352.0	1739257.0	3563804.0	0.220509	-0.717371
     29114.82	0.13206	2087704.0	1674660.0	3430528.0	0.220455	-0.717104
     29115.30	0.13021	2066856.0	1657945.0	3395826.0	0.220450	-0.716968
     29115.79	0.12941	2049445.0	1643892.0	3366022.0	0.220502	-0.716665
     29116.28	0.13409	2118863.0	1699629.0	3479958.0	0.220470	-0.716610
     29116.77	0.12859	2027711.0	1626645.0	3328419.0	0.220388	-0.715978
     29117.25	0.12420	1967085.0	1577674.0	3227541.0	0.220601	-0.715769
     29117.74	0.12486	1976257.0	1584996.0	3243024.0	0.220623	-0.715924
     29118.23	0.12277	1934259.0	1551396.0	3172568.0	0.220569	-0.715386
     29118.72	0.12873	2038990.0	1635619.0	3344191.0	0.220433	-0.715203
     29119.20	0.12083	1913887.0	1535320.0	3137770.0	0.220397	-0.714774
     29119.69	0.11920	1876040.0	1504879.0	3075870.0	0.220451	-0.714875
     29120.18	0.13130	2076949.0	1665940.0	3404119.0	0.220510	-0.714597
     29120.67	0.12171	1926732.0	1545598.0	3157639.0	0.220414	-0.714414
     29121.15	0.13225	2087878.0	1674824.0	3420473.0	0.220440	-0.714071
     29121.64	0.10824	1708255.0	1370502.0	2797729.0	0.220295	-0.713631
     29122.13	0.13642	2147662.0	1722793.0	3516111.0	0.220433	-0.713409
     29122.62	0.11797	1866738.0	1497406.0	3055661.0	0.220458	-0.713262
     29123.10	0.11994	1898501.0	1523111.0	3105832.0	0.220310	-0.712527
     29123.59	0.11772	1851613.0	1486025.0	3030364.0	0.219952	-0.712578
     29124.08	0.12029	1898991.0	1523271.0	3104795.0	0.220463	-0.712088
     29124.57	0.12847	2033443.0	1631310.0	3324614.0	0.220347	-0.711970
     29125.06	0.11599	1833311.0	1471001.0	2996733.0	0.220181	-0.711580
     29125.54	0.12902	2041496.0	1638340.0	3336284.0	0.219999	-0.711174
     29126.03	0.11029	1743374.0	1398796.0	2847787.0	0.220210	-0.710930
     29126.52	0.12752	2010115.0	1612608.0	3281807.0	0.220339	-0.710541
     29127.01	0.12798	2015336.0	1617261.0	3289954.0	0.220052	-0.710140
     29127.49	0.13097	2075960.0	1666080.0	3388251.0	0.219950	-0.709840
     29127.98	0.12851	2035095.0	1633470.0	3321351.0	0.219836	-0.709665
     29128.47	0.12722	2016802.0	1618235.0	3288495.0	0.220177	-0.709094
     29128.96	0.13181	2082192.0	1671205.0	3394656.0	0.219876	-0.708658
     29129.45	0.13066	2055882.0	1649790.0	3350616.0	0.220057	-0.708496
     29129.93	0.13068	2065682.0	1657662.0	3365085.0	0.220052	-0.708045
     29130.42	0.10945	1733563.0	1391109.0	2822826.0	0.220078	-0.707637
     29130.91	0.12948	2051844.0	1646330.0	3339411.0	0.220190	-0.707246
     29131.40	0.11826	1870304.0	1500924.0	3043208.0	0.220020	-0.706831
     29131.89	0.12952	2050592.0	1645546.0	3335770.0	0.220056	-0.706631
     29132.37	0.12194	1929995.0	1548687.0	3137166.0	0.220110	-0.705912
     29132.86	0.12727	2013215.0	1615582.0	3270916.0	0.220038	-0.705375
     29133.35	0.13313	2106468.0	1690632.0	3421986.0	0.219910	-0.705119
     29133.84	0.12251	1935457.0	1553094.0	3141978.0	0.220094	-0.704603
     29134.33	0.13547	2135720.0	1713326.0	3465146.0	0.220367	-0.704318
     29134.81	0.12462	1970459.0	1581337.0	3196384.0	0.219996	-0.703749
     29135.30	0.12519	1981247.0	1589748.0	3212213.0	0.220151	-0.703385
     29135.79	0.13596	2151564.0	1726547.0	3486992.0	0.220072	-0.702916
     29136.28	0.12593	1981565.0	1590017.0	3209379.0	0.220142	-0.702333
     29136.77	0.12799	2021070.0	1621792.0	3271926.0	0.220095	-0.701847
     29137.25	0.13325	2105872.0	1690209.0	3407234.0	0.219877	-0.701049
     29137.74	0.12563	1987653.0	1595059.0	3214150.0	0.220044	-0.700652
     29138.23	0.12757	2014274.0	1616661.0	3255966.0	0.219896	-0.700126
     29138.72	0.12557	1984146.0	1592206.0	3205451.0	0.220068	-0.699732
     29139.21	0.12105	1913467.0	1535413.0	3089725.0	0.220117	-0.699283
     29139.70	0.12439	1963234.0	1575201.0	3167052.0	0.220210	-0.698418
     29140.18	0.12217	1930279.0	1548944.0	3112754.0	0.220091	-0.697934
     29140.67	0.12124	1912925.0	1535299.0	3083279.0	0.219908	-0.697268
     29141.16	0.12575	1977118.0	1586791.0	3184607.0	0.219926	-0.696615
     29141.65	0.12665	1995330.0	1601132.0	3211510.0	0.220099	-0.696030
     29142.14	0.12332	1945929.0	1561546.0	3129799.0	0.220063	-0.695292
     29142.63	0.10786	1696064.0	1361057.0	2725808.0	0.220049	-0.694503
     29143.11	0.13080	2049170.0	1644239.0	3291372.0	0.220157	-0.694027
     29143.60	0.10484	1644230.0	1319415.0	2639216.0	0.220084	-0.693293
     29144.09	0.12109	1902219.0	1526548.0	3051330.0	0.220012	-0.692569
     29144.58	0.11612	1829240.0	1467891.0	2931946.0	0.220074	-0.691840
     29145.07	0.12133	1908819.0	1531892.0	3057264.0	0.219981	-0.691017
     29145.56	0.11719	1841517.0	1477692.0	2946816.0	0.220108	-0.690244
     29146.04	0.11160	1758084.0	1410793.0	2810800.0	0.220073	-0.689317
     29146.53	0.14000	2208578.0	1772065.0	3528026.0	0.220203	-0.688593
     29147.02	0.12268	1928619.0	1547031.0	3077460.0	0.220467	-0.687767
     29147.51	0.12976	2044181.0	1640136.0	3259805.0	0.220218	-0.686888
     29148.00	0.11468	1809696.0	1452063.0	2883533.0	0.220174	-0.686031
     29148.49	0.13888	2187112.0	1755166.0	3482156.0	0.220019	-0.685088
     29148.98	0.12145	1909170.0	1531739.0	3036033.0	0.220265	-0.684148
     29149.46	0.14637	2308564.0	1852370.0	3667467.0	0.220160	-0.683035
     29149.95	0.14723	2323159.0	1864504.0	3687481.0	0.219933	-0.681949
     29150.44	0.11341	1783764.0	1430944.0	2828183.0	0.220391	-0.681300
     29150.93	0.11002	1735636.0	1392051.0	2747417.0	0.220596	-0.679883
     29151.42	0.12424	1959089.0	1570954.0	3097859.0	0.220796	-0.679028
     29151.91	0.12760	2014448.0	1615697.0	3182589.0	0.220579	-0.677929
     29152.40	0.12877	2032424.0	1630181.0	3206944.0	0.220538	-0.676627
     29152.88	0.13692	2160801.0	1733055.0	3404741.0	0.220593	-0.675283
     29153.37	0.13942	2185408.0	1752876.0	3438714.0	0.220545	-0.673840
     29153.86	0.16213	2553376.0	2047992.0	4012601.0	0.220557	-0.672580
     29154.35	0.11571	1818426.0	1458056.0	2853982.0	0.220867	-0.671611
     29154.84	0.11426	1800212.0	1443388.0	2820468.0	0.220911	-0.669910
     29155.33	0.13399	2109503.0	1691378.0	3300458.0	0.220909	-0.668518
     29155.82	0.13039	2052749.0	1645584.0	3205954.0	0.221085	-0.666914
     29156.31	0.13003	2047967.0	1642430.0	3195271.0	0.220671	-0.665495
     29156.79	0.13288	2095485.0	1679705.0	3262818.0	0.221167	-0.663973
     29157.28	0.12208	1924471.0	1542573.0	2991808.0	0.221199	-0.662426
     29157.77	0.12804	2015771.0	1616360.0	3128875.0	0.220825	-0.660497
     29158.26	0.12468	1967060.0	1576825.0	3047734.0	0.221127	-0.658985
     29158.75	0.12110	1896671.0	1520551.0	2932525.0	0.221027	-0.656791
     29159.24	0.12657	1975113.0	1582553.0	3046814.0	0.221586	-0.655057
     29159.73	0.12213	1915360.0	1534956.0	2949284.0	0.221404	-0.653061
     29160.22	0.13874	2183284.0	1749292.0	3354671.0	0.221619	-0.651143
     29160.71	0.11832	1858221.0	1488868.0	2849187.0	0.221603	-0.649018
     29161.19	0.13615	2138487.0	1713119.0	3270661.0	0.221783	-0.646676
     29161.68	0.11873	1842602.0	1476106.0	2811237.0	0.221771	-0.644217
     29162.17	0.12942	2018325.0	1616595.0	3071765.0	0.221946	-0.641930
     29162.66	0.12034	1883060.0	1508244.0	2857834.0	0.221952	-0.639118
     29163.15	0.11611	1819020.0	1456451.0	2752845.0	0.222295	-0.636632
     29163.64	0.12221	1919494.0	1537053.0	2896206.0	0.222195	-0.633535
     29164.13	0.11546	1817613.0	1454983.0	2733286.0	0.222530	-0.630510
     29164.62	0.12938	2035587.0	1629482.0	3051274.0	0.222522	-0.627297
     29165.11	0.11015	1732671.0	1386763.0	2588637.0	0.222692	-0.624159
     29165.60	0.12945	2032860.0	1626471.0	3026156.0	0.223031	-0.620881
     29166.09	0.12306	1933595.0	1546944.0	2868071.0	0.223100	-0.617358
     29166.57	0.12155	1902988.0	1522563.0	2810373.0	0.223030	-0.612922
     29167.06	0.13376	2101155.0	1680417.0	3090146.0	0.223445	-0.609176
     29167.55	0.11572	1823537.0	1457964.0	2669508.0	0.223737	-0.604853
     29168.04	0.13948	2197159.0	1756361.0	3199803.0	0.223921	-0.599845
     29168.53	0.11909	1873274.0	1497184.0	2716230.0	0.224102	-0.595659
     29169.02	0.13225	2080637.0	1662639.0	3000198.0	0.224268	-0.590272
     29169.51	0.13275	2083774.0	1664660.0	2986664.0	0.224560	-0.584536
     29170.00	0.12324	1940071.0	1549741.0	2765340.0	0.224637	-0.579076
     29170.49	0.12808	2014149.0	1607844.0	2850962.0	0.225303	-0.572762
     29170.98	0.12025	1890386.0	1508664.0	2656458.0	0.225557	-0.565769
     29171.47	0.12478	1964551.0	1567643.0	2741122.0	0.225691	-0.558794
     29171.96	0.12679	1992674.0	1589566.0	2757329.0	0.226016	-0.550801
     29172.45	0.13005	2040800.0	1627176.0	2799094.0	0.226496	-0.542450
     29172.94	0.12047	1892191.0	1508121.0	2572668.0	0.226871	-0.534079
     29173.42	0.13481	2117712.0	1687068.0	2849555.0	0.227344	-0.524171
     29173.91	0.12465	1950674.0	1553544.0	2597063.0	0.227636	-0.513842
     29174.40	0.12240	1924119.0	1531459.0	2530431.0	0.228247	-0.502169
     29174.89	0.13815	2170793.0	1726805.0	2819410.0	0.228820	-0.490255
     29175.38	0.12308	1936061.0	1538983.0	2478160.0	0.229534	-0.476395
     29175.87	0.13490	2116420.0	1681349.0	2669648.0	0.230130	-0.462350
     29176.36	0.13398	2105575.0	1672106.0	2610576.0	0.230505	-0.445487
     29176.85	0.12401	1941273.0	1540200.0	2362600.0	0.231432	-0.427850
     29177.34	0.13155	2062606.0	1634164.0	2456443.0	0.232839	-0.407583
     29177.83	0.11809	1852308.0	1466484.0	2159613.0	0.233565	-0.387061
     29178.32	0.12930	2026337.0	1602892.0	2304656.0	0.234420	-0.363122
     29178.81	0.12216	1914799.0	1512827.0	2118173.0	0.235633	-0.336574
     29179.30	0.13151	2061653.0	1626618.0	2207133.0	0.237005	-0.305191
     29179.79	0.10990	1724893.0	1359516.0	1784083.0	0.238036	-0.271776
     29180.28	0.12668	1988780.0	1564220.0	1978105.0	0.240134	-0.234752
     29180.77	0.12681	1991142.0	1563066.0	1887470.0	0.242059	-0.188588
     29181.26	0.12789	2009193.0	1573865.0	1817776.0	0.244199	-0.144079
     29181.75	0.095425	1494113.0	1167474.0	1274875.0	0.246690	-0.0880057
     29182.24	0.11806	1854686.0	1445881.0	1488721.0	0.248997	-0.0291985
     29182.73	0.11441	1795416.0	1395437.0	1348973.0	0.252029	0.0338641
     29183.22	0.12811	2010754.0	1557814.0	1400652.0	0.255226	0.106346
     29183.71	0.10881	1706549.0	1317724.0	1099594.0	0.258567	0.180965
     29184.20	0.11303	1767740.0	1360303.0	1051437.0	0.261994	0.257550
     29184.68	0.12946	2029395.0	1554320.0	1106819.0	0.266700	0.339548
     29185.17	0.11544	1811133.0	1381748.0	907217.0	0.270603	0.420723
     29185.66	0.12167	1906643.0	1447588.0	873184.0	0.275445	0.505508
     29186.15	0.11941	1870328.0	1414240.0	791654.0	0.279522	0.580223
     29186.64	0.14024	2198338.0	1654695.0	861724.0	0.284085	0.652437
     29187.13	0.13254	2074343.0	1554458.0	758044.0	0.288518	0.718141
     29187.62	0.13698	2147978.0	1603048.0	739688.0	0.292620	0.773434
     29188.11	0.11939	1869794.0	1389464.0	614284.0	0.296910	0.816216
     29188.60	0.13464	2106741.0	1559464.0	664198.0	0.300800	0.853517
     29189.09	0.13765	2158017.0	1592523.0	661826.0	0.303870	0.878072
     29189.58	0.12446	1951788.0	1434915.0	586651.0	0.307640	0.894431
     29190.07	0.12075	1890338.0	1385964.0	562382.0	0.310360	0.901970
     29190.56	0.13018	2039084.0	1490992.0	605156.0	0.313059	0.901711
     29191.05	0.12572	1968631.0	1436250.0	586318.0	0.315303	0.895929
     29191.54	0.13369	2095338.0	1526083.0	629868.0	0.317011	0.884949
     29192.03	0.13757	2154963.0	1567015.0	655788.0	0.318601	0.871090
     29192.52	0.13605	2133311.0	1549522.0	659243.0	0.319729	0.854610
     29193.01	0.12439	1947734.0	1414526.0	612805.0	0.319872	0.836503
     29193.50	0.12490	1955069.0	1418953.0	626294.0	0.320506	0.817855
     29193.99	0.13509	2111656.0	1533068.0	689718.0	0.320202	0.798743
     29194.48	0.12925	2024639.0	1470067.0	672249.0	0.320083	0.782434
     29194.97	0.13439	2105667.0	1530332.0	711087.0	0.319148	0.766445
     29195.46	0.12836	2007634.0	1460151.0	688619.0	0.318417	0.751607
     29195.95	0.13608	2127131.0	1548908.0	739507.0	0.317224	0.739322
     29196.44	0.12615	1974504.0	1439911.0	696323.0	0.315736	0.726523
     29196.93	0.11333	1774155.0	1295246.0	632604.0	0.314624	0.716611
     29197.42	0.12659	1976855.0	1445317.0	713195.0	0.313179	0.706329
     29197.92	0.12360	1932715.0	1414317.0	703826.0	0.312279	0.697871
     29198.41	0.13152	2058258.0	1508632.0	756276.0	0.310657	0.690552
     29198.90	0.12044	1882004.0	1381511.0	696784.0	0.309159	0.684458
     29199.39	0.13365	2087635.0	1534971.0	777983.0	0.307520	0.679562
     29199.88	0.12478	1946750.0	1432980.0	729239.0	0.306405	0.675510
     29200.37	0.12696	1987667.0	1464969.0	747997.0	0.305128	0.672190
     29200.86	0.11942	1867925.0	1378217.0	705158.0	0.304038	0.670124
     29201.35	0.12954	2027478.0	1498052.0	767036.0	0.302627	0.669387
     29201.84	0.11683	1826164.0	1350085.0	692140.0	0.302050	0.668135
     29202.33	0.11773	1842198.0	1363488.0	698762.0	0.300913	0.668491
     29202.82	0.12279	1921776.0	1423515.0	728690.0	0.300121	0.669636
     29203.31	0.11405	1783020.0	1322304.0	676030.0	0.298933	0.670893
     29203.80	0.13176	2060512.0	1528843.0	779544.0	0.298443	0.673557
     29204.29	0.11350	1772431.0	1315751.0	669092.0	0.297944	0.676241
     29204.78	0.13357	2090044.0	1552223.0	787159.0	0.297497	0.679013
     29205.27	0.11886	1860097.0	1382740.0	698894.0	0.296562	0.682323
     29205.76	0.12498	1940748.0	1443690.0	727154.0	0.295871	0.685819
     29206.25	0.13349	2085598.0	1551887.0	778896.0	0.295584	0.689349
     29206.74	0.13820	2153168.0	1603040.0	801435.0	0.295038	0.693253
     29207.23	0.12881	2010129.0	1496914.0	746183.0	0.294793	0.696190
     29207.72	0.12647	1977516.0	1473151.0	732101.0	0.294438	0.699240
     29208.21	0.12205	1905207.0	1419601.0	703915.0	0.294215	0.701474
     29208.70	0.11967	1866678.0	1391412.0	688229.0	0.293841	0.703953
     29209.19	0.13794	2150890.0	1603558.0	791325.0	0.293657	0.706271
     29209.69	0.11735	1834584.0	1367813.0	674451.0	0.293605	0.707069
     29210.18	0.12029	1877890.0	1400433.0	689287.0	0.293367	0.708879
     29210.67	0.12240	1913386.0	1427149.0	702176.0	0.293196	0.709250
     29211.16	0.12890	2014793.0	1502545.0	738601.0	0.293356	0.710158
     29211.65	0.13422	2095119.0	1562757.0	768584.0	0.293159	0.709657
     29212.14	0.11741	1833828.0	1368475.0	673449.0	0.292709	0.709040
     29212.63	0.13647	2128573.0	1588272.0	782208.0	0.292805	0.708281
     29213.12	0.12718	1979130.0	1476477.0	727877.0	0.292999	0.707282
     29213.61	0.12185	1902431.0	1419482.0	701311.0	0.292841	0.705096
     29214.10	0.13893	2166678.0	1616699.0	800927.0	0.292809	0.702372
     29214.59	0.12444	1941336.0	1448334.0	719312.0	0.292962	0.699874
     29215.08	0.12892	2011110.0	1500624.0	747769.0	0.292806	0.696542
     29215.57	0.13571	2113399.0	1576857.0	788539.0	0.292864	0.693007
     29216.06	0.12681	1970046.0	1469727.0	738728.0	0.292980	0.687902
     29216.56	0.11881	1842056.0	1374446.0	693649.0	0.292832	0.683840
     29217.05	0.12775	1975168.0	1473772.0	747106.0	0.292828	0.679373
     29217.54	0.12544	1947452.0	1452784.0	739905.0	0.293040	0.674715
     29218.03	0.12627	1966855.0	1466716.0	751333.0	0.293410	0.668932
     29218.52	0.12853	2002866.0	1494064.0	768590.0	0.293079	0.664698
     29219.01	0.12144	1893127.0	1411626.0	729250.0	0.293488	0.660481
     29219.50	0.12929	2015107.0	1502554.0	778244.0	0.293506	0.657882
     29219.99	0.12687	1975532.0	1472945.0	765130.0	0.293574	0.654973
     29220.48	0.12375	1928647.0	1437763.0	748208.0	0.293730	0.653163
     29220.97	0.094912	1480346.0	1103680.0	574921.0	0.293626	0.652173
     29221.47	0.10949	1707383.0	1272590.0	663074.0	0.293908	0.651923
     29221.96	0.11857	1838673.0	1370338.0	713545.0	0.293987	0.652567
     29222.45	0.11716	1815335.0	1353323.0	703294.0	0.293707	0.654543
     29222.94	0.12388	1924822.0	1434259.0	743829.0	0.294185	0.656592
     29223.43	0.12057	1877723.0	1399380.0	723759.0	0.294031	0.659326
     29223.92	0.12973	2018262.0	1504300.0	775372.0	0.293909	0.662740
     29224.41	0.10511	1637712.0	1220559.0	626516.0	0.293991	0.666890
     29224.90	0.11456	1786182.0	1331116.0	681002.0	0.294063	0.670208
     29225.39	0.13375	2083446.0	1552996.0	791522.0	0.293837	0.673984
     29225.89	0.12418	1936155.0	1443191.0	732495.0	0.293847	0.678155
     29226.38	0.13770	2144197.0	1598454.0	808007.0	0.293728	0.682221
     29226.87	0.14728	2294726.0	1710447.0	860945.0	0.293859	0.686479
     29227.36	0.13742	2140989.0	1596457.0	800096.0	0.293481	0.690810
     29227.85	0.16910	2633115.0	1963039.0	980175.0	0.293674	0.694518
     29228.34	0.089290	1390322.0	1036482.0	515514.0	0.293703	0.698423
     29228.83	0.12594	1961963.0	1463335.0	724799.0	0.293227	0.702579
     29229.32	0.10140	1577150.0	1175922.0	580458.0	0.293567	0.705990
     29229.81	0.13075	2034069.0	1516751.0	745629.0	0.293468	0.710098
     29230.31	0.12917	2008147.0	1497840.0	733160.0	0.293188	0.714415
     29230.80	0.14299	2205033.0	1644716.0	802077.0	0.293175	0.718118
     29231.29	0.13642	2123901.0	1584262.0	769539.0	0.293136	0.722082
     29231.78	0.16659	2592313.0	1933355.0	935901.0	0.293294	0.725502
     29232.27	0.10032	1563035.0	1165848.0	561555.0	0.293181	0.730494
     29232.76	0.12520	1948032.0	1452902.0	697285.0	0.293257	0.734124
     29233.25	0.13553	2107467.0	1571599.0	751570.0	0.293393	0.737684
     29233.75	0.13164	2045938.0	1525722.0	727023.0	0.293389	0.741265
     29234.24	0.12879	2005441.0	1495773.0	710608.0	0.293221	0.744277
     29234.73	0.13170	2046302.0	1525842.0	722985.0	0.293488	0.746913
     29235.22	0.18854	2934604.0	2188300.0	1033777.0	0.293448	0.749906
     29235.71	0.10891	1693997.0	1263335.0	595342.0	0.293336	0.752374
     29236.20	0.081422	1265186.0	943186.0	443947.0	0.293711	0.753558
     29236.69	0.11338	1761631.0	1312924.0	617346.0	0.293983	0.754582
     29237.19	0.12594	1960498.0	1461153.0	686188.0	0.293973	0.755829
     29237.68	0.12171	1891979.0	1409942.0	662174.0	0.294075	0.755775
     29238.17	0.13970	2172595.0	1619209.0	760960.0	0.293985	0.755112
     29238.66	0.12266	1902540.0	1417891.0	666423.0	0.294019	0.755001
     29239.15	0.14337	2228658.0	1660741.0	782124.0	0.294136	0.753006
     29239.64	0.10163	1580042.0	1176939.0	555216.0	0.294534	0.751315
     29240.14	0.12339	1920653.0	1430380.0	676469.0	0.294725	0.748809
     29240.63	0.11555	1797309.0	1338592.0	634830.0	0.294672	0.746016
     29241.12	0.12350	1906314.0	1419844.0	674927.0	0.294625	0.743698
     29241.61	0.12195	1893190.0	1409616.0	672815.0	0.294946	0.739602
     29242.10	0.11671	1812639.0	1349391.0	646183.0	0.295130	0.736326
     29242.59	0.12408	1928393.0	1435630.0	690317.0	0.295083	0.732208
     29243.09	0.12340	1916869.0	1426886.0	688974.0	0.295199	0.728046
     29243.58	0.11400	1772357.0	1319658.0	639468.0	0.294938	0.724491
     29244.07	0.13064	2025119.0	1507675.0	733692.0	0.295060	0.720235
     29244.56	0.11328	1760683.0	1310757.0	640550.0	0.295097	0.716033
     29245.05	0.13380	2079345.0	1547525.0	759387.0	0.295396	0.711901
     29245.55	0.13178	2046737.0	1522864.0	750422.0	0.295654	0.707712
     29246.04	0.12522	1943953.0	1446324.0	715506.0	0.295698	0.703790
     29246.53	0.13557	2099957.0	1562252.0	776449.0	0.295788	0.699153
     29247.02	0.12953	2012202.0	1497168.0	746246.0	0.295654	0.696275
     29247.51	0.11730	1821310.0	1354858.0	678087.0	0.295859	0.692176
     29248.00	0.13202	2052009.0	1526537.0	766584.0	0.295818	0.688813
     29248.50	0.11273	1751792.0	1303233.0	656572.0	0.295791	0.685571
     29248.99	0.12387	1925231.0	1431970.0	723925.0	0.295995	0.682119
     29249.48	0.12868	1998178.0	1486109.0	753211.0	0.296074	0.679571
     29249.97	0.12514	1941542.0	1444220.0	734152.0	0.295913	0.676609
     29250.46	0.14082	2183553.0	1623671.0	827017.0	0.296264	0.674620
     29250.96	0.12000	1860537.0	1383888.0	706167.0	0.295968	0.672800
     29251.45	0.11948	1853427.0	1378558.0	705000.0	0.295998	0.670596
     29251.94	0.12904	2004380.0	1490582.0	763302.0	0.296168	0.669268
     29252.43	0.13768	2135570.0	1588063.0	814360.0	0.296219	0.667868
     29252.92	0.12589	1951589.0	1451282.0	744943.0	0.296197	0.666895
     29253.42	0.13552	2102737.0	1563713.0	802789.0	0.296177	0.666726
     29253.91	0.13508	2084238.0	1549970.0	795480.0	0.296168	0.667045
     29254.40	0.13381	2074119.0	1541992.0	791588.0	0.296461	0.666789
     29254.89	0.11096	1720282.0	1278899.0	656709.0	0.296489	0.666514
     29255.39	0.12516	1940749.0	1443175.0	740165.0	0.296228	0.667728
     29255.88	0.12314	1901393.0	1414237.0	725019.0	0.295997	0.668148
     29256.37	0.12796	1981226.0	1473344.0	754388.0	0.296181	0.669383
     29256.86	0.12739	1971758.0	1466545.0	749851.0	0.296016	0.670790
     29257.35	0.12216	1889543.0	1405250.0	717770.0	0.296120	0.671821
     29257.85	0.13558	2103066.0	1563845.0	797541.0	0.296249	0.673370
     29258.34	0.17714	2748468.0	2043769.0	1040402.0	0.296248	0.675188
     29258.83	0.11531	1787741.0	1329946.0	675367.0	0.295814	0.677637
     29259.32	0.094093	1453875.0	1081171.0	547818.0	0.296188	0.679857
     29259.82	0.11002	1695626.0	1261342.0	637771.0	0.295876	0.681952
     29260.31	0.089720	1387485.0	1032195.0	520490.0	0.295805	0.684672
     29260.80	0.11397	1761534.0	1310616.0	659124.0	0.295688	0.687341
     29261.29	0.14593	2253612.0	1677086.0	840967.0	0.295476	0.690261
     29261.79	0.15874	2448766.0	1822591.0	911026.0	0.295325	0.693443
     29262.28	0.13632	2102861.0	1565047.0	780026.0	0.295383	0.696344
     29262.77	0.086813	1337626.0	995503.0	494435.0	0.295404	0.699832
     29263.26	0.080095	1235152.0	919475.0	454981.0	0.295146	0.703547
     29263.75	0.11482	1774094.0	1321111.0	651494.0	0.294817	0.706960
     29264.25	0.13097	2019237.0	1503609.0	738759.0	0.294851	0.710652
     29264.74	0.12801	1977889.0	1473027.0	721637.0	0.294711	0.713553
     29265.23	0.14120	2179897.0	1623703.0	792597.0	0.294568	0.717150
     29265.72	0.14328	2215195.0	1650133.0	803341.0	0.294485	0.719832
     29266.22	0.12592	1941030.0	1446033.0	701422.0	0.294395	0.723470
     29266.71	0.12818	1982147.0	1476916.0	714515.0	0.294224	0.726107
     29267.20	0.11528	1779319.0	1326088.0	639597.0	0.293997	0.729150
     29267.70	0.12561	1941945.0	1447952.0	696474.0	0.293540	0.731875
     29268.19	0.11193	1725159.0	1286369.0	616743.0	0.293496	0.735126
     29268.68	0.13791	2129741.0	1587919.0	760225.0	0.293576	0.736565
     29269.17	0.13631	2102874.0	1568227.0	749054.0	0.293359	0.738890
     29269.67	0.13173	2034243.0	1517625.0	724027.0	0.292977	0.740073
     29270.16	0.13342	2053570.0	1531676.0	729536.0	0.293217	0.741709
     29270.65	0.13279	2047723.0	1527548.0	727257.0	0.293065	0.742139
     29271.14	0.12143	1876150.0	1399584.0	665554.0	0.293047	0.743311
     29271.64	0.13670	2109247.0	1574123.0	748221.0	0.292633	0.743755
     29272.13	0.13537	2081215.0	1553125.0	738211.0	0.292683	0.743795
     29272.62	0.13702	2107944.0	1573489.0	748256.0	0.292418	0.743306
     29273.11	0.12952	2001459.0	1494637.0	710615.0	0.291993	0.743508
     29273.61	0.13346	2058798.0	1537091.0	731474.0	0.292231	0.742585
     29274.10	0.12566	1939448.0	1447857.0	689834.0	0.292319	0.741389
     29274.59	0.11977	1845385.0	1377790.0	657295.0	0.292207	0.740103
     29275.09	0.12584	1931684.0	1443044.0	689192.0	0.291637	0.738990
     29275.58	0.12507	1923923.0	1437066.0	687229.0	0.291763	0.737691
     29276.07	0.12835	1975243.0	1474956.0	706943.0	0.292063	0.735433
     29276.56	0.12754	1965308.0	1468155.0	704876.0	0.291642	0.733740
     29277.06	0.12178	1873764.0	1399868.0	673481.0	0.291571	0.731673
     29277.55	0.12669	1951958.0	1458376.0	702856.0	0.291509	0.729927
     29278.04	0.11917	1837409.0	1373073.0	662820.0	0.291305	0.728303
     29278.54	0.12786	1971202.0	1473177.0	712526.0	0.291222	0.726360
     29279.03	0.11377	1755497.0	1311990.0	635908.0	0.291207	0.724246
     29279.52	0.12924	1989882.0	1487263.0	722513.0	0.291138	0.721957
     29280.02	0.11783	1818252.0	1359338.0	661272.0	0.290878	0.720588
     29280.51	0.12445	1917673.0	1433732.0	699048.0	0.290832	0.718317
     29281.00	0.11731	1810515.0	1353233.0	661008.0	0.291115	0.716486
     29281.49	0.12194	1881071.0	1406086.0	688199.0	0.291031	0.714487
     29281.99	0.11387	1751668.0	1309278.0	642125.0	0.291093	0.712448
     29282.48	0.12434	1912448.0	1429744.0	702180.0	0.290889	0.711061
     29282.97	0.12677	1946642.0	1455809.0	716018.0	0.290544	0.709612
     29283.47	0.12762	1965919.0	1469780.0	723971.0	0.290847	0.708117
     29283.96	0.13323	2047843.0	1530838.0	755033.0	0.290972	0.706809
     29284.45	0.13250	2035281.0	1521750.0	751644.0	0.290773	0.705353
     29284.95	0.13780	2120524.0	1585227.0	784017.0	0.290936	0.704052
     29285.44	0.11707	1794451.0	1341840.0	664443.0	0.290657	0.702848
     29285.93	0.12565	1932479.0	1445007.0	716058.0	0.290689	0.702108
     29286.43	0.11662	1791157.0	1339152.0	664560.0	0.290825	0.700667
     29286.92	0.12999	1995267.0	1491967.0	740879.0	0.290682	0.700013
     29287.41	0.12454	1917933.0	1434110.0	712894.0	0.290704	0.698967
     29287.91	0.13729	2106125.0	1574821.0	783326.0	0.290708	0.698348
     29288.40	0.14673	2259388.0	1689576.0	840917.0	0.290616	0.697740
     29288.89	0.11247	1719974.0	1286110.0	640507.0	0.290687	0.697117
     29289.39	0.11547	1779293.0	1330390.0	662561.0	0.290744	0.697115
     29289.88	0.12531	1934135.0	1446207.0	720596.0	0.290716	0.696621
     29290.37	0.12632	1932256.0	1444833.0	720285.0	0.290694	0.696102
     29290.87	0.13712	2097112.0	1568100.0	781974.0	0.290696	0.695798
     29291.36	0.12828	1969587.0	1473003.0	734721.0	0.290521	0.695568
     29291.85	0.13848	2126558.0	1590002.0	793384.0	0.290769	0.695183
     29292.35	0.13482	2075009.0	1551418.0	773996.0	0.290796	0.695358
     29292.84	0.11524	1771878.0	1324694.0	660728.0	0.290859	0.695595
     29293.33	0.12000	1847771.0	1382056.0	688928.0	0.290408	0.696191
     29293.83	0.11961	1833832.0	1371326.0	683829.0	0.290630	0.695826
     29294.32	0.13419	2066891.0	1545484.0	770993.0	0.290708	0.695413
     29294.81	0.12498	1927061.0	1441079.0	718551.0	0.290604	0.695911
     29295.31	0.13422	2063273.0	1542886.0	768814.0	0.290639	0.696561
     29295.80	0.11652	1785333.0	1334888.0	665272.0	0.290758	0.696407
     29296.29	0.12053	1856683.0	1388840.0	691828.0	0.290323	0.696887
     29296.79	0.12119	1861067.0	1391711.0	692651.0	0.290616	0.697763
     29297.28	0.11530	1775577.0	1327543.0	660624.0	0.290796	0.697900
     29297.77	0.11437	1760533.0	1316539.0	654607.0	0.290610	0.698727
     29298.27	0.10644	1633234.0	1221264.0	606901.0	0.290676	0.699276
     29298.76	0.12989	1990510.0	1488478.0	739473.0	0.290637	0.699572
     29299.26	0.13008	1997224.0	1493418.0	741090.0	0.290691	0.700701
     29299.75	0.12285	1879587.0	1405343.0	696529.0	0.290771	0.701927
     29300.24	0.097882	1501232.0	1122470.0	556355.0	0.290754	0.701880
     29300.74	0.10060	1529992.0	1144099.0	566632.0	0.290645	0.702663
     29301.23	0.13192	2015495.0	1507013.0	745558.0	0.290735	0.703752
     29301.72	0.13053	1996849.0	1493388.0	737962.0	0.290523	0.704910
     29302.22	0.11620	1781503.0	1332332.0	658010.0	0.290527	0.705466
     29302.71	0.14899	2278881.0	1704340.0	841159.0	0.290507	0.706153
     29303.21	0.12663	1941803.0	1452253.0	715864.0	0.290501	0.707381
     29303.70	0.16170	2462381.0	1841126.0	907155.0	0.290751	0.707819
     29304.19	0.094311	1441731.0	1078009.0	530697.0	0.290729	0.708680
     29304.69	0.14045	2146127.0	1605026.0	789269.0	0.290525	0.709788
     29305.18	0.11742	1799898.0	1345950.0	661070.0	0.290630	0.710996
     29305.67	0.11756	1801179.0	1347016.0	661421.0	0.290550	0.711257
     29306.17	0.13612	2084279.0	1558622.0	764655.0	0.290621	0.712133
     29306.66	0.13807	2114563.0	1581732.0	775227.0	0.290328	0.713120
     29307.16	0.17293	2648129.0	1980452.0	969771.0	0.290528	0.714020
     29307.65	0.13218	2022003.0	1512073.0	739970.0	0.290607	0.714627
     29308.14	0.087911	1346858.0	1007251.0	492485.0	0.290550	0.715516
     29308.64	0.13088	2003419.0	1498555.0	732337.0	0.290354	0.716016
     29309.13	0.13109	2004803.0	1499282.0	732663.0	0.290559	0.716056
     29309.63	0.13340	2037694.0	1524216.0	744045.0	0.290339	0.717134
     29310.12	0.12904	1975628.0	1477882.0	720832.0	0.290276	0.717959
     29310.61	0.14156	2166381.0	1620127.0	790040.0	0.290553	0.718176
     29311.11	0.12542	1920473.0	1436183.0	700439.0	0.290583	0.718037
     29311.60	0.13562	2077424.0	1553477.0	756895.0	0.290633	0.719026
     29312.10	0.11520	1765317.0	1319868.0	643344.0	0.290799	0.718607
     29312.59	0.13179	2010234.0	1503154.0	732261.0	0.290686	0.719184
     29313.08	0.11691	1793769.0	1341297.0	652923.0	0.290682	0.719933
     29313.58	0.12590	1931415.0	1444465.0	703186.0	0.290514	0.719873
     29314.07	0.12588	1930472.0	1443777.0	702618.0	0.290502	0.720205
     29314.57	0.12927	1979749.0	1480134.0	719790.0	0.290837	0.720928
     29315.06	0.13453	2066552.0	1545297.0	751743.0	0.290665	0.720577
     29315.56	0.12065	1852779.0	1385121.0	673745.0	0.290899	0.720691
     29316.05	0.12083	1854946.0	1386920.0	674806.0	0.290770	0.720415
     29316.54	0.11178	1711570.0	1279723.0	622139.0	0.290767	0.721235
     29317.04	0.12246	1875638.0	1402242.0	682181.0	0.290876	0.720533
     29317.53	0.12692	1947299.0	1456240.0	708367.0	0.290586	0.720651
     29318.03	0.12358	1893733.0	1415981.0	688566.0	0.290727	0.720967
     29318.52	0.12266	1878431.0	1404756.0	683160.0	0.290573	0.720890
     29319.02	0.12986	1993436.0	1490668.0	724988.0	0.290635	0.720825
     29319.51	0.10752	1647467.0	1231695.0	599092.0	0.290848	0.720731
     29320.00	0.11211	1717432.0	1283858.0	624444.0	0.290961	0.720763
     29320.50	0.13127	2013113.0	1505643.0	732419.0	0.290462	0.720623
     29320.99	0.12033	1843907.0	1379266.0	671130.0	0.290335	0.720344
     29321.49	0.13362	2040279.0	1525983.0	743055.0	0.290448	0.719624
     29321.98	0.13154	2016608.0	1508175.0	734317.0	0.290517	0.719715
     29322.48	0.13236	2026743.0	1515572.0	738452.0	0.290637	0.718992
     29322.97	0.12635	1932543.0	1444933.0	704014.0	0.290774	0.719020
     29323.47	0.12186	1869075.0	1397677.0	681414.0	0.290632	0.718397
     29323.96	0.12838	1965051.0	1469440.0	716492.0	0.290637	0.718270
     29324.45	0.12690	1945199.0	1454597.0	709999.0	0.290635	0.717221
     29324.95	0.12149	1861105.0	1392100.0	679767.0	0.290357	0.716819
     29325.44	0.12949	1986840.0	1485590.0	725507.0	0.290733	0.716697
     29325.94	0.11882	1820946.0	1361351.0	665301.0	0.290879	0.715993
     29326.43	0.13100	2009041.0	1502643.0	734415.0	0.290432	0.715907
     29326.93	0.13227	2023268.0	1513316.0	740250.0	0.290411	0.715071
     29327.42	0.11677	1790609.0	1339047.0	655281.0	0.290598	0.714649
     29327.92	0.12115	1848882.0	1382900.0	677080.0	0.290398	0.714149
     29328.41	0.13654	2086887.0	1560894.0	764756.0	0.290415	0.713457
     29328.91	0.11890	1822917.0	1363728.0	668231.0	0.290216	0.713343
     29329.40	0.13836	2109190.0	1577897.0	773341.0	0.290211	0.713128
     29329.89	0.13765	2109946.0	1578384.0	774697.0	0.290261	0.711685
     29330.39	0.12846	1961909.0	1467601.0	720229.0	0.290289	0.711815
     29330.88	0.13121	1998085.0	1494631.0	733905.0	0.290310	0.711255
     29331.38	0.11644	1781827.0	1333060.0	655395.0	0.290162	0.709994
     29331.87	0.12838	1959150.0	1465694.0	720415.0	0.290182	0.710257
     29332.37	0.12592	1928748.0	1442555.0	709757.0	0.290455	0.709248
     29332.86	0.13020	1988383.0	1487566.0	731983.0	0.290181	0.709139
     29333.36	0.12534	1918659.0	1435548.0	707086.0	0.290080	0.708150
     29333.85	0.12246	1873111.0	1401575.0	690383.0	0.290004	0.708105
     29334.35	0.12798	1958114.0	1464957.0	722118.0	0.290156	0.707393
     29334.84	0.11770	1800845.0	1347439.0	664247.0	0.290050	0.707307
     29335.34	0.11624	1774549.0	1327987.0	654800.0	0.289882	0.707090
     29335.83	0.12255	1874642.0	1402714.0	692168.0	0.290009	0.706336
     29336.33	0.11842	1810153.0	1355071.0	668449.0	0.289558	0.706649
     29336.82	0.12076	1840964.0	1377512.0	680060.0	0.290010	0.705853
     29337.32	0.11142	1702706.0	1274182.0	628835.0	0.289914	0.706191
     29337.81	0.11724	1787292.0	1337958.0	660882.0	0.289557	0.705325
     29338.31	0.12830	1955410.0	1463886.0	723238.0	0.289505	0.705111
     29338.80	0.11406	1744529.0	1305901.0	645824.0	0.289591	0.704121
     29339.30	0.11301	1723229.0	1289696.0	637943.0	0.289793	0.703913
     29339.79	0.11041	1687709.0	1263291.0	624748.0	0.289652	0.704127
     29340.29	0.13273	2029688.0	1519644.0	751917.0	0.289406	0.703605
     29340.78	0.11431	1747033.0	1308137.0	647349.0	0.289315	0.703474
     29341.28	0.13767	2103370.0	1575193.0	779712.0	0.289163	0.703208
     29341.77	0.15762	2407284.0	1802989.0	892422.0	0.289053	0.703262
     29342.27	0.14588	2228534.0	1669257.0	826382.0	0.288965	0.703077
     29342.76	0.12036	1840297.0	1378047.0	682371.0	0.289260	0.702849
     29343.26	0.10043	1529535.0	1145404.0	567359.0	0.289206	0.702520
     29343.75	0.12000	1826847.0	1368232.0	677519.0	0.289072	0.702837
     29344.25	0.14020	2131092.0	1596270.0	790811.0	0.288965	0.702366
     29344.74	0.11866	1811396.0	1357011.0	672385.0	0.288813	0.702209
     29345.24	0.12953	1978251.0	1482098.0	733991.0	0.288754	0.702717
     29345.73	0.13511	2064061.0	1546450.0	766451.0	0.288713	0.701946
     29346.23	0.15212	2321729.0	1739957.0	862004.0	0.288452	0.702356
     29346.72	0.11677	1783498.0	1336463.0	662107.0	0.288550	0.702355
     29347.22	0.12138	1851326.0	1387278.0	687465.0	0.288559	0.702088
     29347.72	0.13307	2029968.0	1521219.0	753870.0	0.288508	0.702047
     29348.21	0.12612	1925549.0	1442835.0	715353.0	0.288601	0.701589
     29348.71	0.14319	2184404.0	1637301.0	811279.0	0.288294	0.702192
     29349.20	0.12633	1930115.0	1446616.0	716746.0	0.288353	0.702261
     29349.70	0.13394	2045292.0	1533173.0	759590.0	0.288201	0.702316
     29350.19	0.14205	2169687.0	1626497.0	805533.0	0.288154	0.702680
     29350.69	0.11846	1806331.0	1354103.0	670876.0	0.288158	0.702310
     29351.18	0.11879	1810358.0	1356822.0	672026.0	0.288379	0.702603
     29351.68	0.13807	2098714.0	1573673.0	779730.0	0.287912	0.702220
     29352.17	0.12348	1878802.0	1408632.0	697646.0	0.288015	0.702662
     29352.67	0.12539	1911385.0	1433063.0	709566.0	0.288014	0.702916
     29353.16	0.11940	1824080.0	1368016.0	676916.0	0.287714	0.703570
     29353.66	0.12809	1956380.0	1467249.0	726018.0	0.287707	0.703570
     29354.16	0.13099	1997234.0	1497745.0	740964.0	0.287803	0.703764
     29354.65	0.12082	1841412.0	1381429.0	683121.0	0.287414	0.704202
     29355.15	0.12458	1899321.0	1424956.0	704887.0	0.287356	0.703859
     29355.64	0.12061	1838133.0	1379156.0	681813.0	0.287279	0.704472
     29356.14	0.12456	1890400.0	1418106.0	701026.0	0.287466	0.704532
     29356.63	0.12235	1861925.0	1396800.0	690580.0	0.287427	0.704407
     29357.13	0.12016	1829410.0	1372616.0	678498.0	0.287275	0.704592
     29357.63	0.11842	1802921.0	1352851.0	668165.0	0.287194	0.705434
     29358.12	0.12757	1946424.0	1460353.0	720921.0	0.287316	0.705904
     29358.62	0.11840	1804462.0	1354147.0	668710.0	0.287091	0.705577
     29359.11	0.11819	1800499.0	1351134.0	667230.0	0.287120	0.705565
     29359.61	0.12345	1878459.0	1409961.0	695423.0	0.286890	0.706797
     29360.10	0.10985	1662951.0	1248147.0	615555.0	0.286934	0.706891
     29360.60	0.13328	2026812.0	1521127.0	750417.0	0.287013	0.706578
     29361.09	0.13346	2036686.0	1528093.0	753442.0	0.287303	0.707124
     29361.59	0.12149	1845907.0	1385631.0	683218.0	0.286815	0.707097
     29362.09	0.13917	2119411.0	1591054.0	784641.0	0.286742	0.706926
     29362.58	0.12149	1846863.0	1386676.0	683508.0	0.286579	0.707426
     29363.08	0.12515	1907892.0	1432158.0	705525.0	0.286817	0.707995
     29363.57	0.13147	2004456.0	1504803.0	741478.0	0.286711	0.707772
     29364.07	0.12432	1892291.0	1421091.0	699959.0	0.286363	0.708158
     29364.57	0.13198	2012364.0	1511143.0	744389.0	0.286444	0.708058
     29365.06	0.11919	1814324.0	1362753.0	670985.0	0.286206	0.708515
     29365.56	0.13485	2054316.0	1542904.0	759745.0	0.286277	0.708439
     29366.05	0.11702	1779730.0	1336721.0	658317.0	0.286242	0.708288
     29366.55	0.12830	1949460.0	1464294.0	720974.0	0.286179	0.708525
     29367.05	0.12194	1853890.0	1392759.0	685769.0	0.285999	0.708501
     29367.54	0.12853	1955477.0	1469155.0	723308.0	0.285947	0.708608
     29368.04	0.12801	1947207.0	1462992.0	720446.0	0.285912	0.708368
     29368.53	0.13182	2008967.0	1509390.0	743331.0	0.285915	0.708319
     29369.03	0.12320	1874920.0	1408847.0	693811.0	0.285794	0.708327
     29369.53	0.13139	2000529.0	1503014.0	740403.0	0.285939	0.708033
     29370.02	0.13336	2031866.0	1526950.0	752224.0	0.285682	0.707993
     29370.52	0.12966	1969833.0	1480082.0	728861.0	0.285851	0.708370
     29371.01	0.12410	1881012.0	1413532.0	696352.0	0.285718	0.707992
     29371.51	0.13451	2040568.0	1533250.0	755706.0	0.285839	0.707493
     29372.01	0.12086	1836676.0	1380122.0	680110.0	0.285786	0.707673
     29372.50	0.12850	1952645.0	1467801.0	723770.0	0.285420	0.707047
     29373.00	0.12563	1910912.0	1435916.0	707937.0	0.285778	0.707203
     29373.49	0.12686	1927489.0	1448427.0	714188.0	0.285740	0.707087
     29373.99	0.13053	1985760.0	1492232.0	736218.0	0.285729	0.706502
     29374.49	0.11926	1810615.0	1360874.0	671631.0	0.285539	0.706173
     29374.98	0.11614	1765490.0	1327080.0	655215.0	0.285447	0.705773
     29375.48	0.12767	1937279.0	1456235.0	718792.0	0.285430	0.706038
     29375.98	0.11857	1798144.0	1352018.0	667652.0	0.285157	0.705586
     29376.47	0.12129	1843909.0	1386265.0	685188.0	0.285275	0.704675
     29376.97	0.12144	1845147.0	1386603.0	685352.0	0.285702	0.704680
     29377.46	0.11612	1763254.0	1325212.0	655086.0	0.285589	0.704561
     29377.96	0.11096	1686908.0	1268193.0	627356.0	0.285304	0.703834
     29378.46	0.13387	2034837.0	1529780.0	757017.0	0.285292	0.703494
     29378.95	0.10566	1597964.0	1201404.0	594747.0	0.285239	0.703110
     29379.45	0.11532	1753119.0	1317757.0	652525.0	0.285465	0.702837
     29379.95	0.11566	1752260.0	1317750.0	652990.0	0.284981	0.702119
     29380.44	0.13045	1982133.0	1490272.0	738576.0	0.285215	0.701990
     29380.94	0.11691	1775958.0	1334856.0	662345.0	0.285517	0.700792
     29381.44	0.13234	2011139.0	1511878.0	750161.0	0.285349	0.700820
     29381.93	0.12341	1873622.0	1408727.0	699517.0	0.285187	0.700052
     29382.43	0.14271	2167853.0	1629960.0	809444.0	0.285182	0.699963
     29382.93	0.13558	2060129.0	1548650.0	769430.0	0.285385	0.699489
     29383.42	0.11877	1805680.0	1357854.0	674979.0	0.285032	0.698979
     29383.92	0.12128	1840224.0	1383745.0	688196.0	0.285094	0.698475
     29384.41	0.14058	2136159.0	1605975.0	799176.0	0.285278	0.697905
     29384.91	0.12735	1935115.0	1454719.0	724560.0	0.285354	0.697003
     29385.41	0.12003	1822547.0	1370465.0	683039.0	0.285085	0.696353
     29385.90	0.13251	2011071.0	1512287.0	753591.0	0.285044	0.696529
     29386.40	0.12087	1833947.0	1379051.0	687643.0	0.285075	0.695881
     29386.90	0.13444	2039789.0	1533921.0	765110.0	0.285019	0.695563
     29387.39	0.13083	1984417.0	1492119.0	744602.0	0.285128	0.695103
     29387.89	0.12809	1944466.0	1461959.0	729735.0	0.285210	0.694851
     29388.39	0.13236	2007037.0	1509186.0	754034.0	0.285089	0.693888
     29388.88	0.13487	2044505.0	1537531.0	768553.0	0.284978	0.693424
     29389.38	0.13003	1970838.0	1482171.0	741281.0	0.284951	0.692883
     29389.88	0.14185	2153146.0	1619348.0	810107.0	0.284906	0.692613
     29390.37	0.13790	2089820.0	1571814.0	786806.0	0.284848	0.692004
     29390.87	0.13374	2027554.0	1524970.0	763884.0	0.284855	0.691314
     29391.37	0.13087	1986164.0	1493553.0	748180.0	0.285047	0.691270
     29391.87	0.10594	1604568.0	1206805.0	604758.0	0.284878	0.690903
     29392.36	0.13015	1973808.0	1484961.0	744542.0	0.284576	0.690375
     29392.86	0.12937	1959684.0	1474255.0	739526.0	0.284630	0.689899
     29393.36	0.12563	1902770.0	1431074.0	718126.0	0.284886	0.689535
     29393.85	0.12812	1941810.0	1460812.0	733171.0	0.284628	0.689369
     29394.35	0.12122	1835181.0	1380641.0	693451.0	0.284595	0.688623
     29394.85	0.13658	2071631.0	1558309.0	782696.0	0.284735	0.688612
     29395.34	0.10882	1650335.0	1241477.0	624131.0	0.284676	0.687697
     29395.84	0.12927	1960341.0	1475046.0	741075.0	0.284429	0.688343
     29396.34	0.12428	1884476.0	1417883.0	712794.0	0.284485	0.687728
     29396.83	0.12332	1864825.0	1402820.0	705814.0	0.284683	0.686888
     29397.33	0.12669	1918075.0	1442997.0	725894.0	0.284600	0.687073
     29397.83	0.12536	1891005.0	1422835.0	715907.0	0.284457	0.686856
     29398.33	0.13131	1945023.0	1463774.0	737296.0	0.284256	0.685784
     29398.82	0.11495	1709509.0	1286557.0	647837.0	0.284237	0.686086
     29399.32	0.11984	1796377.0	1351941.0	680920.0	0.284231	0.685852
     29399.82	0.12055	1815643.0	1366117.0	688040.0	0.284467	0.685881
     29400.31	0.12398	1864986.0	1403468.0	707382.0	0.284307	0.685131
     29400.81	0.11465	1714689.0	1290235.0	650292.0	0.284407	0.685158
     29401.31	0.12873	1945035.0	1463833.0	737972.0	0.284222	0.684908
     29401.80	0.13120	1969287.0	1482336.0	747304.0	0.284052	0.684902
     29402.30	0.11824	1783818.0	1342503.0	676518.0	0.284220	0.685332
     29402.80	0.12946	1958124.0	1474182.0	743490.0	0.283884	0.684503
     29403.30	0.13114	1975266.0	1487109.0	750029.0	0.283869	0.684477
     29403.79	0.12703	1912843.0	1440154.0	726389.0	0.283841	0.684420
     29404.29	0.12293	1861861.0	1401553.0	706978.0	0.283996	0.684337
     29404.79	0.12941	1953178.0	1470525.0	741803.0	0.283838	0.684291
     29405.29	0.12594	1894376.0	1426273.0	719329.0	0.283825	0.684501
     29405.78	0.12151	1824932.0	1373801.0	693031.0	0.283961	0.684262
     29406.28	0.12249	1833238.0	1380404.0	696450.0	0.283708	0.684135
     29406.78	0.12870	1918911.0	1444305.0	728877.0	0.284130	0.683879
     29407.27	0.11911	1789371.0	1346973.0	679639.0	0.284004	0.684053
     29407.77	0.12899	1941728.0	1461990.0	737640.0	0.283780	0.684098
     29408.27	0.12673	1908346.0	1437252.0	725205.0	0.283504	0.684034
     29408.77	0.13404	2013993.0	1516370.0	765265.0	0.283800	0.683852
     29409.26	0.12458	1881395.0	1416790.0	714705.0	0.283620	0.684279
     29409.76	0.13009	1956924.0	1473702.0	743570.0	0.283596	0.684070
     29410.26	0.13865	2081911.0	1568030.0	791103.0	0.283466	0.684147
     29410.76	0.12109	1820458.0	1371081.0	691731.0	0.283489	0.684158
     29411.25	0.12917	1950861.0	1469577.0	741308.0	0.283296	0.684314
     29411.75	0.12704	1915358.0	1443130.0	727955.0	0.283090	0.684330
     29412.25	0.13039	1966130.0	1481466.0	747263.0	0.283035	0.684370
     29412.75	0.12336	1858955.0	1400152.0	706123.0	0.283434	0.684547
     29413.24	0.13324	2014023.0	1517197.0	764977.0	0.283270	0.684774
     29413.74	0.12591	1900849.0	1432067.0	721824.0	0.283182	0.685093
     29414.24	0.12629	1901913.0	1432429.0	721780.0	0.283489	0.685407
     29414.74	0.12172	1831431.0	1380022.0	695517.0	0.282998	0.685199
     29415.23	0.14870	2234426.0	1683703.0	848602.0	0.282989	0.685161
     29415.73	0.10735	1617877.0	1219257.0	614300.0	0.282873	0.685514
     29416.23	0.11741	1760506.0	1326553.0	668191.0	0.283017	0.685765
     29416.73	0.11765	1771975.0	1335306.0	672791.0	0.282934	0.685481
     29417.22	0.11918	1794579.0	1352285.0	681278.0	0.282975	0.685581
     29417.72	0.12291	1842094.0	1388394.0	699133.0	0.282755	0.686062
     29418.22	0.11884	1784949.0	1345426.0	677870.0	0.282679	0.685510
     29418.72	0.11477	1733012.0	1306141.0	657810.0	0.282784	0.685916
     29419.22	0.13207	1990869.0	1500902.0	755579.0	0.282505	0.686337
     29419.71	0.10573	1596861.0	1203459.0	605842.0	0.282840	0.686336
     29420.21	0.10778	1621011.0	1221928.0	614959.0	0.282620	0.686630
     29420.71	0.12505	1884978.0	1421153.0	715284.0	0.282448	0.686544
     29421.21	0.12223	1840304.0	1387337.0	698463.0	0.282545	0.686259
     29421.70	0.11882	1778610.0	1341388.0	675004.0	0.282127	0.686742
     29422.20	0.13238	1991275.0	1501117.0	755138.0	0.282566	0.687064
     29422.70	0.11809	1769659.0	1334637.0	671423.0	0.282128	0.687015
     29423.20	0.14471	2177473.0	1642167.0	825940.0	0.282148	0.687250
     29423.70	0.12641	1897190.0	1430905.0	720190.0	0.282067	0.686547
     29424.19	0.12633	1904310.0	1436015.0	722383.0	0.282248	0.687072
     29424.69	0.12740	1914169.0	1443663.0	726385.0	0.282100	0.686859
     29425.19	0.12914	1936669.0	1460831.0	734933.0	0.281964	0.686981
     29425.69	0.13517	2034581.0	1534892.0	771728.0	0.281830	0.687583
     29426.19	0.11830	1782492.0	1344527.0	676196.0	0.281970	0.687315
     29426.68	0.13477	2023784.0	1526598.0	767838.0	0.281927	0.687218
     29427.18	0.13558	2039151.0	1538547.0	773740.0	0.281695	0.687358
     29427.68	0.13011	1953471.0	1473821.0	741578.0	0.281749	0.686833
     29428.18	0.11532	1733425.0	1307936.0	658216.0	0.281649	0.686672
     29428.68	0.12968	1943794.0	1466586.0	737863.0	0.281704	0.686934
     29429.17	0.13296	1994983.0	1505513.0	757435.0	0.281502	0.686951
     29429.67	0.12913	1939071.0	1462894.0	735949.0	0.281792	0.687011
     29430.17	0.14201	2124374.0	1603192.0	806741.0	0.281481	0.686749
     29430.67	0.13112	1971942.0	1487968.0	748646.0	0.281607	0.686900
     29431.17	0.12936	1945342.0	1468634.0	739157.0	0.281105	0.686578
     29431.66	0.13027	1949413.0	1471274.0	740950.0	0.281400	0.685951
     29432.16	0.12798	1921347.0	1449973.0	729984.0	0.281482	0.686278
     29432.66	0.12883	1933304.0	1459193.0	734660.0	0.281347	0.686231
     29433.16	0.12119	1818930.0	1372863.0	691169.0	0.281350	0.686269
     29433.66	0.12976	1953433.0	1474582.0	742745.0	0.281214	0.685777
     29434.16	0.12266	1844555.0	1392304.0	701322.0	0.281278	0.685748
     29434.65	0.12959	1934783.0	1459996.0	735727.0	0.281561	0.685330
     29435.15	0.11679	1754882.0	1324546.0	667462.0	0.281332	0.685343
     29435.65	0.12212	1822933.0	1376507.0	693721.0	0.280898	0.685235
     29436.15	0.12699	1901905.0	1435609.0	723756.0	0.281267	0.684890
     29436.65	0.12546	1879959.0	1419614.0	716010.0	0.280865	0.684446
     29437.15	0.12818	1921600.0	1450722.0	731773.0	0.281097	0.684346
     29437.64	0.12064	1812798.0	1368594.0	690632.0	0.281088	0.683932
     29438.14	0.13093	1958121.0	1478595.0	746190.0	0.280893	0.683867
     29438.64	0.11263	1692321.0	1277866.0	644886.0	0.280909	0.683873
     29439.14	0.11748	1761475.0	1329973.0	671703.0	0.280993	0.683098
     29439.64	0.12558	1882163.0	1421629.0	717995.0	0.280618	0.683096
     29440.14	0.12231	1835144.0	1386113.0	700188.0	0.280620	0.682910
     29440.63	0.11636	1739310.0	1313544.0	663867.0	0.280760	0.682402
     29441.13	0.11875	1781794.0	1345424.0	680199.0	0.280912	0.682079
     29441.63	0.12290	1848005.0	1395932.0	705916.0	0.280544	0.681821
     29442.13	0.12278	1833785.0	1384898.0	701093.0	0.280756	0.680741
     29442.63	0.13098	1956664.0	1477294.0	747720.0	0.281029	0.680939
     29443.13	0.13713	2048469.0	1546987.0	783259.0	0.280784	0.680601
     29443.63	0.12458	1860793.0	1405706.0	711764.0	0.280463	0.680549
     29444.12	0.12789	1919107.0	1449478.0	734291.0	0.280656	0.680053
     29444.62	0.12698	1896467.0	1432496.0	725817.0	0.280574	0.679876
     29445.12	0.12930	1937746.0	1464111.0	742375.0	0.280277	0.679149
     29445.62	0.12138	1813741.0	1370152.0	694695.0	0.280470	0.679204
     29446.12	0.13321	2002275.0	1512353.0	766837.0	0.280617	0.679148
     29446.62	0.12023	1802406.0	1361818.0	690755.0	0.280302	0.678791
     29447.12	0.12313	1841680.0	1391652.0	706566.0	0.280187	0.677830
     29447.62	0.12629	1895987.0	1432791.0	727982.0	0.280115	0.677103
     29448.11	0.13141	1971411.0	1489679.0	757081.0	0.280189	0.676846
     29448.61	0.12134	1817726.0	1373255.0	698008.0	0.280402	0.676709
     29449.11	0.13482	2003656.0	1514376.0	769653.0	0.279970	0.676819
     29449.61	0.12177	1820307.0	1375458.0	699656.0	0.280218	0.675953
     29450.11	0.12991	1941016.0	1466775.0	746405.0	0.280145	0.675553
     29450.61	0.13264	1986376.0	1501217.0	764390.0	0.280036	0.674953
     29451.11	0.13013	1944241.0	1469034.0	748196.0	0.280267	0.674695
     29451.61	0.12827	1922897.0	1453166.0	740258.0	0.280088	0.674501
     29452.10	0.12602	1889177.0	1427461.0	727478.0	0.280244	0.674069
     29452.60	0.12995	1942537.0	1468566.0	749064.0	0.279708	0.673217
     29453.10	0.13041	1955530.0	1478252.0	754001.0	0.279801	0.673222
     29453.60	0.12648	1894348.0	1432120.0	730626.0	0.279719	0.673009
     29454.10	0.12407	1853772.0	1401016.0	715315.0	0.280025	0.672230
     29454.60	0.12461	1865055.0	1410050.0	719945.0	0.279665	0.672206
     29455.10	0.13401	1985868.0	1501303.0	767063.0	0.279723	0.671520
     29455.60	0.11718	1735170.0	1311966.0	670867.0	0.279579	0.670711
     29456.10	0.11898	1778082.0	1344131.0	687029.0	0.279788	0.671126
     29456.59	0.12235	1819135.0	1375071.0	703862.0	0.279856	0.669678
     29457.09	0.12769	1900702.0	1437157.0	735577.0	0.279556	0.669767
     29457.59	0.11386	1685522.0	1274187.0	652499.0	0.279767	0.669254
     29458.09	0.12446	1852835.0	1401208.0	717587.0	0.279382	0.669196
     29458.59	0.11842	1745130.0	1319249.0	675945.0	0.279766	0.668706
     29459.09	0.11504	1704424.0	1288758.0	660725.0	0.279548	0.668097
     29459.59	0.11749	1759538.0	1330239.0	682179.0	0.279693	0.667822
     29460.09	0.10264	1532344.0	1159033.0	594097.0	0.279213	0.668299
     29460.59	0.11779	1763165.0	1332937.0	683895.0	0.279726	0.667336
     29461.09	0.12020	1799115.0	1360533.0	698157.0	0.279418	0.667188
     29461.59	0.13541	2027534.0	1533070.0	787241.0	0.279548	0.666493
     29462.09	0.12371	1851006.0	1399978.0	718885.0	0.279273	0.666510
     29462.58	0.13311	1985634.0	1501825.0	771636.0	0.279257	0.665923
     29463.08	0.14826	2214551.0	1675022.0	860999.0	0.279223	0.665488
     29463.58	0.10928	1636058.0	1237446.0	635972.0	0.279240	0.665650
     29464.08	0.11791	1763780.0	1333949.0	686021.0	0.279316	0.664991
     29464.58	0.13117	1960139.0	1482984.0	762431.0	0.278959	0.665300
     29465.08	0.13879	2055342.0	1554673.0	800236.0	0.279177	0.664114
     29465.58	0.12476	1864875.0	1410728.0	726384.0	0.279088	0.663782
     29466.08	0.13984	2088067.0	1579933.0	813592.0	0.278856	0.663679
     29466.58	0.14709	2195054.0	1660558.0	855205.0	0.279053	0.663568
     29467.08	0.15408	2306175.0	1744785.0	898909.0	0.278959	0.663205
     29467.58	0.091824	1376480.0	1041473.0	536563.0	0.278893	0.663207
     29468.08	0.096748	1445068.0	1093280.0	563467.0	0.278974	0.662829
     29468.58	0.14446	2155895.0	1631115.0	841020.0	0.278942	0.662404
     29469.08	0.13646	2035578.0	1540375.0	794340.0	0.278754	0.662270
     29469.58	0.13338	1995241.0	1509855.0	778797.0	0.278751	0.662018
     29470.07	0.13552	2024381.0	1532017.0	790206.0	0.278679	0.662047
     29470.57	0.14229	2130000.0	1612092.0	831581.0	0.278589	0.661959
     29471.07	0.12042	1781321.0	1348346.0	695772.0	0.278477	0.661612
     29471.57	0.12406	1839711.0	1392708.0	718670.0	0.278358	0.661603
     29472.07	0.13330	1978693.0	1497893.0	773465.0	0.278377	0.660934
     29472.57	0.11728	1744579.0	1320872.0	681780.0	0.278221	0.661340
     29473.07	0.13254	1964744.0	1487474.0	768246.0	0.278283	0.660725
     29473.57	0.12545	1867042.0	1413689.0	729869.0	0.278153	0.661093
     29474.07	0.12270	1831598.0	1386378.0	716133.0	0.278494	0.660584
     29474.57	0.13350	1991387.0	1507385.0	778447.0	0.278455	0.660831
     29475.07	0.11738	1750895.0	1326154.0	684899.0	0.277844	0.660767
     29475.57	0.12543	1861362.0	1409052.0	728200.0	0.278391	0.660097
     29476.07	0.12647	1873593.0	1418707.0	733376.0	0.278112	0.659843
     29476.57	0.12814	1907392.0	1444569.0	746595.0	0.277926	0.660043
     29477.07	0.12210	1818920.0	1377410.0	711769.0	0.278038	0.660207
     29477.57	0.11808	1761672.0	1334207.0	689311.0	0.277926	0.660400
     29478.07	0.12357	1835312.0	1389917.0	718671.0	0.277970	0.659596
     29478.57	0.12177	1816792.0	1375991.0	711180.0	0.277898	0.660004
     29479.07	0.11560	1725103.0	1306634.0	675192.0	0.277832	0.660213
     29479.57	0.11651	1725177.0	1306894.0	675846.0	0.277676	0.659443
     29480.07	0.12599	1870810.0	1417218.0	732710.0	0.277676	0.659701
     29480.57	0.12175	1809730.0	1370677.0	708751.0	0.277873	0.659556
     29481.07	0.12215	1816050.0	1375832.0	711351.0	0.277605	0.659648
     29481.57	0.11944	1779828.0	1348594.0	697137.0	0.277454	0.659836
     29482.07	0.13076	1947919.0	1475657.0	762948.0	0.277658	0.659669
     29482.57	0.13572	2020679.0	1531150.0	791856.0	0.277415	0.659395
     29483.07	0.11931	1778890.0	1347195.0	696600.0	0.277965	0.659569
     29483.57	0.13335	1984817.0	1504349.0	777755.0	0.277166	0.659704
     29484.07	0.11969	1783407.0	1351408.0	698851.0	0.277379	0.659465
     29484.57	0.13707	2042074.0	1547560.0	799993.0	0.277286	0.659832
     29485.07	0.13294	1980171.0	1500957.0	775990.0	0.277080	0.659719
     29485.57	0.12055	1795484.0	1360315.0	703065.0	0.277558	0.660022
     29486.07	0.12307	1828340.0	1385493.0	716155.0	0.277352	0.659915
     29486.57	0.12882	1922012.0	1456561.0	752830.0	0.277294	0.659994
     29487.07	0.11136	1661027.0	1258920.0	650694.0	0.277182	0.659970
     29487.57	0.12692	1885555.0	1429335.0	738909.0	0.277013	0.659790
     29488.07	0.13184	1968861.0	1492283.0	771377.0	0.277148	0.659885
     29488.57	0.12413	1846075.0	1399309.0	723436.0	0.277083	0.659722
     29489.07	0.13160	1962457.0	1487646.0	768960.0	0.277002	0.659911
     29489.57	0.13728	2044409.0	1549838.0	800697.0	0.276958	0.660423
     29490.07	0.18004	2679019.0	2030980.0	1049453.0	0.276932	0.660249
     29490.57	0.088808	1318608.0	999595.0	516445.0	0.276982	0.660381
     29491.07	0.10642	1576771.0	1195433.0	617829.0	0.276871	0.660052
     29491.57	0.14124	2098340.0	1590930.0	821942.0	0.276828	0.660404
     29492.07	0.12237	1819661.0	1379430.0	713094.0	0.276980	0.659812
     29492.57	0.12748	1888022.0	1431810.0	740153.0	0.276590	0.659838
     29493.07	0.12716	1887563.0	1431705.0	739866.0	0.276421	0.660152
     29493.57	0.12275	1821096.0	1381009.0	713941.0	0.276624	0.659769
     29494.07	0.13645	2028020.0	1538043.0	794814.0	0.276549	0.660158
     29494.57	0.11748	1733948.0	1315041.0	679682.0	0.276533	0.659998
     29495.07	0.12539	1866972.0	1416341.0	731779.0	0.276241	0.660354
     29495.57	0.11417	1696655.0	1286978.0	664876.0	0.276362	0.660452
     29496.07	0.12837	1908728.0	1447816.0	748049.0	0.276381	0.660343
     29496.57	0.12062	1784673.0	1353952.0	699688.0	0.276207	0.660148
     29497.07	0.11312	1682009.0	1276084.0	659071.0	0.276193	0.660720
     29497.57	0.15389	2292316.0	1738813.0	898804.0	0.276360	0.659893
     29498.07	0.098736	1470371.0	1115404.0	576547.0	0.276298	0.659915
     29498.57	0.094973	1411554.0	1071276.0	553500.0	0.275841	0.660344
     29499.07	0.11095	1648467.0	1250808.0	646399.0	0.276056	0.660128
     29499.57	0.12003	1771266.0	1343926.0	694536.0	0.276099	0.660106
     29500.07	0.11714	1738178.0	1318744.0	681170.0	0.276158	0.660623
     29500.58	0.13881	2062111.0	1564316.0	808271.0	0.276282	0.660307
     29501.08	0.12622	1876941.0	1424414.0	735956.0	0.275883	0.660345
     29501.58	0.12197	1809970.0	1373852.0	710070.0	0.275692	0.660010
     29502.08	0.12553	1861186.0	1412372.0	730322.0	0.275943	0.659540
     29502.58	0.12402	1843898.0	1399588.0	723508.0	0.275704	0.659822
     29503.08	0.13599	2017918.0	1531933.0	791541.0	0.275536	0.660304
     29503.58	0.12405	1835516.0	1393189.0	720372.0	0.275730	0.659583
     29504.08	0.13587	2008096.0	1524476.0	788252.0	0.275536	0.659588
     29504.58	0.13207	1959084.0	1487117.0	769142.0	0.275638	0.659319
     29505.08	0.13105	1948340.0	1478917.0	764768.0	0.275668	0.659493
     29505.58	0.16207	2403250.0	1824645.0	943986.0	0.275437	0.659029
     29506.08	0.11607	1722317.0	1307642.0	676043.0	0.275445	0.659724
     29506.58	0.11233	1669698.0	1267666.0	655753.0	0.275465	0.659148
     29507.08	0.13181	1954356.0	1483984.0	767730.0	0.275330	0.659048
     29507.58	0.11781	1747700.0	1327420.0	686638.0	0.275063	0.659185
     29508.09	0.14566	2167091.0	1645712.0	851723.0	0.275213	0.658667
     29508.59	0.17263	2554104.0	1939884.0	1003485.0	0.275073	0.659149
     29509.09	0.13413	1979658.0	1503487.0	778265.0	0.275137	0.658475
     29509.59	0.18524	2752678.0	2090830.0	1082537.0	0.275013	0.658254
     29510.09	0.060627	894544.0	679324.0	351776.0	0.275216	0.658104
     29510.59	0.091598	1359056.0	1032016.0	534460.0	0.275276	0.658013
     29511.09	0.14012	2077969.0	1578361.0	817520.0	0.275004	0.657867
     29511.59	0.12281	1822226.0	1383917.0	716895.0	0.275141	0.657744
     29512.09	0.13179	1958560.0	1488369.0	770921.0	0.274529	0.657850
     29512.59	0.12267	1816637.0	1380062.0	715296.0	0.274859	0.657187
     29513.09	0.11902	1755618.0	1333577.0	691010.0	0.274956	0.657466
     29513.60	0.12979	1920029.0	1458588.0	755841.0	0.274871	0.657393
     29514.10	0.11486	1708333.0	1297767.0	672579.0	0.274873	0.657281
     29514.60	0.13225	1954385.0	1484788.0	769985.0	0.274804	0.656656
     29515.10	0.12376	1836515.0	1395393.0	723801.0	0.274694	0.656415
     29515.60	0.12354	1831808.0	1392089.0	722232.0	0.274498	0.656214
     29516.10	0.12182	1804972.0	1371418.0	711720.0	0.274700	0.655916
     29516.60	0.12598	1870043.0	1421377.0	737552.0	0.274335	0.656045
     29517.10	0.12363	1835452.0	1394978.0	723985.0	0.274412	0.655863
     29517.60	0.11575	1714975.0	1303114.0	676860.0	0.274642	0.655048
     29518.10	0.12251	1819137.0	1382537.0	717981.0	0.274442	0.655232
     29518.61	0.12073	1787854.0	1358696.0	705950.0	0.274491	0.654736
     29519.11	0.11377	1689585.0	1284009.0	667486.0	0.274496	0.654224
     29519.61	0.12643	1875642.0	1425781.0	740980.0	0.274231	0.654501
     29520.11	0.12477	1844720.0	1402050.0	728992.0	0.274392	0.654028
     29520.61	0.12740	1885869.0	1433420.0	745628.0	0.274326	0.653592
     29521.11	0.13033	1926828.0	1464844.0	761553.0	0.274126	0.654144
     29521.61	0.11430	1693442.0	1287570.0	669991.0	0.274006	0.653248
     29522.11	0.12749	1891631.0	1438089.0	748457.0	0.274124	0.653057
     29522.62	0.13704	2032081.0	1544995.0	804173.0	0.274040	0.652962
     29523.12	0.12775	1889904.0	1436708.0	747903.0	0.274172	0.652836
     29523.62	0.14448	2138000.0	1625391.0	846969.0	0.274122	0.651840
     29524.12	0.11866	1759732.0	1337897.0	697121.0	0.274063	0.651895
     29524.62	0.11140	1648736.0	1253346.0	653168.0	0.274192	0.651738
     29525.12	0.11479	1693824.0	1288084.0	671616.0	0.273833	0.651224
     29525.62	0.13366	1975188.0	1501958.0	783412.0	0.273894	0.650866
     29526.12	0.12469	1845453.0	1403309.0	731799.0	0.273892	0.651082
     29526.63	0.12669	1871590.0	1423150.0	742783.0	0.273916	0.650224
     29527.13	0.12384	1830523.0	1392079.0	726640.0	0.273803	0.650122
     29527.63	0.13493	1987433.0	1511686.0	789093.0	0.273618	0.650097
     29528.13	0.13609	2013639.0	1531500.0	799790.0	0.273696	0.649654
     29528.63	0.12651	1864685.0	1417853.0	740497.0	0.273948	0.649577
     29529.13	0.12708	1878319.0	1428125.0	746051.0	0.274015	0.649324
     29529.64	0.12370	1829030.0	1390751.0	727020.0	0.273942	0.648645
     29530.14	0.13972	2060920.0	1567534.0	819595.0	0.273649	0.648449
     29530.64	0.12638	1869903.0	1422156.0	743906.0	0.273713	0.648015
     29531.14	0.12302	1814473.0	1380336.0	722098.0	0.273468	0.647921
     29531.64	0.13231	1952473.0	1485157.0	777226.0	0.273576	0.647545
     29532.14	0.11656	1725491.0	1312519.0	687203.0	0.273563	0.647074
     29532.64	0.12733	1879773.0	1429929.0	748899.0	0.273526	0.646776
     29533.15	0.12108	1787084.0	1359513.0	712250.0	0.273459	0.646453
     29533.65	0.12786	1891783.0	1439143.0	753863.0	0.273472	0.646592
     29534.15	0.11760	1737580.0	1321959.0	692823.0	0.273379	0.646095
     29534.65	0.12717	1878505.0	1429047.0	749222.0	0.273468	0.645728
     29535.15	0.12130	1792018.0	1363859.0	715296.0	0.273024	0.645377
     29535.65	0.11233	1661933.0	1264411.0	663173.0	0.273375	0.645326
     29536.16	0.12079	1785474.0	1358614.0	712550.0	0.273219	0.645370
     29536.66	0.11988	1767787.0	1345104.0	706194.0	0.273257	0.644337
     29537.16	0.11068	1633195.0	1242973.0	652674.0	0.273032	0.644184
     29537.66	0.11814	1732059.0	1317843.0	692239.0	0.273315	0.643820
     29538.16	0.10958	1612337.0	1226960.0	644603.0	0.273145	0.643660
     29538.67	0.11649	1708511.0	1299739.0	682885.0	0.273459	0.643592
     29539.17	0.12512	1845627.0	1404505.0	738022.0	0.273134	0.643467
     29539.67	0.12966	1913063.0	1456222.0	765859.0	0.272860	0.642603
     29540.17	0.12709	1876608.0	1428087.0	750850.0	0.273130	0.642885
     29540.67	0.12651	1852140.0	1409282.0	741230.0	0.273261	0.642525
     29541.17	0.13403	1971391.0	1500042.0	789356.0	0.273246	0.642031
     29541.68	0.12615	1855215.0	1412073.0	743422.0	0.272942	0.641550
     29542.18	0.13183	1938622.0	1475550.0	776758.0	0.272947	0.641657
     29542.68	0.12318	1817788.0	1383622.0	728414.0	0.272916	0.641590
     29543.18	0.15095	2206603.0	1679997.0	885142.0	0.272662	0.640799
     29543.68	0.12643	1839383.0	1400206.0	737603.0	0.272811	0.640969
     29544.19	0.13122	1923522.0	1464439.0	771502.0	0.272686	0.640888
     29544.69	0.10963	1605173.0	1221990.0	644188.0	0.272751	0.640245
     29545.19	0.11792	1734295.0	1320218.0	695967.0	0.272804	0.640250
     29545.69	0.14655	2158790.0	1643172.0	866443.0	0.272919	0.639987
     29546.19	0.13023	1912906.0	1456649.0	768127.0	0.272485	0.639939
     29546.70	0.12764	1868603.0	1422892.0	750443.0	0.272500	0.639783
     29547.20	0.13829	2024587.0	1541531.0	813257.0	0.272590	0.639484
     29547.70	0.15943	2349526.0	1789197.0	943925.0	0.272447	0.639475
     29548.20	0.10946	1612137.0	1227854.0	648129.0	0.272293	0.638933
     29548.71	0.12787	1889014.0	1438575.0	759575.0	0.272402	0.638649
     29549.21	0.12901	1905361.0	1451226.0	766251.0	0.272263	0.638654
     29549.71	0.12539	1850434.0	1409993.0	744431.0	0.271835	0.638720
     29550.21	0.12763	1878796.0	1431401.0	756287.0	0.271977	0.637988
     29550.71	0.13245	1946219.0	1482576.0	783279.0	0.272107	0.638047
     29551.22	0.12499	1834555.0	1397137.0	738467.0	0.272377	0.637604
     29551.72	0.12512	1830371.0	1394309.0	736953.0	0.272120	0.637630
     29552.22	0.12082	1774024.0	1351914.0	714905.0	0.271729	0.637127
     29552.72	0.11902	1734916.0	1321690.0	698788.0	0.272048	0.637319
     29553.23	0.12873	1891594.0	1441148.0	762182.0	0.271980	0.637010
     29553.73	0.13443	1974991.0	1504986.0	795860.0	0.271780	0.637116
     29554.23	0.12157	1788365.0	1362645.0	720865.0	0.271874	0.636731
     29554.73	0.12462	1830971.0	1394892.0	737980.0	0.272029	0.636656
     29555.24	0.12256	1802516.0	1373302.0	726939.0	0.271965	0.636131
     29555.74	0.11900	1751715.0	1335012.0	706182.0	0.271655	0.636823
     29556.24	0.12151	1786716.0	1361344.0	720905.0	0.271907	0.635720
     29556.74	0.11776	1732165.0	1320023.0	698694.0	0.271723	0.636192
     29557.24	0.12361	1820587.0	1387588.0	734343.0	0.271592	0.636346
     29557.75	0.12508	1837872.0	1401122.0	741517.0	0.271335	0.636331
     29558.25	0.11419	1673364.0	1275504.0	675513.0	0.271495	0.635624
     29558.75	0.12528	1839817.0	1402012.0	742675.0	0.271758	0.635405
     29559.26	0.12670	1864343.0	1420898.0	752651.0	0.271620	0.635443
     29559.76	0.12876	1898287.0	1447155.0	766676.0	0.271352	0.635291
     29560.26	0.11296	1660666.0	1265734.0	670697.0	0.271567	0.635090
     29560.76	0.13912	2045668.0	1559101.0	826186.0	0.271615	0.635045
     29561.27	0.12157	1789465.0	1364466.0	722891.0	0.271154	0.635260
     29561.77	0.14476	2125585.0	1620348.0	858657.0	0.271406	0.635027
     29562.27	0.12000	1751957.0	1335428.0	707590.0	0.271482	0.635142
     29562.77	0.12893	1891041.0	1441852.0	764099.0	0.271199	0.634986
     29563.28	0.17591	2581040.0	1967687.0	1042832.0	0.271334	0.634919
     29563.78	0.074078	1091907.0	832304.0	441195.0	0.271483	0.634711
     29564.28	0.10231	1503958.0	1146921.0	607874.0	0.271019	0.634869
     29564.78	0.14174	2075521.0	1582623.0	838853.0	0.271129	0.634803
     29565.29	0.12903	1892891.0	1443402.0	765323.0	0.271102	0.634460
     29565.79	0.12678	1866113.0	1422924.0	754224.0	0.271144	0.634780
     29566.29	0.12683	1867646.0	1423860.0	754670.0	0.271307	0.634846
     29566.80	0.12882	1890252.0	1441399.0	764246.0	0.271096	0.634480
     29567.30	0.13357	1957809.0	1493271.0	791709.0	0.270857	0.634530
     29567.80	0.13003	1913601.0	1459230.0	773899.0	0.271078	0.634223
     29568.30	0.12279	1795579.0	1369415.0	725968.0	0.270944	0.634633
     29568.81	0.12677	1855368.0	1415209.0	750462.0	0.270806	0.634343
     29569.31	0.13157	1927851.0	1470220.0	779892.0	0.270994	0.634012
     29569.81	0.13532	1981523.0	1511481.0	802267.0	0.270776	0.633404
     29570.32	0.12538	1826794.0	1393725.0	739417.0	0.270582	0.633873
     29570.82	0.12863	1880884.0	1435073.0	761638.0	0.270526	0.633500
     29571.32	0.13514	1975713.0	1507248.0	799732.0	0.270644	0.633764
     29571.82	0.12161	1776991.0	1355703.0	719295.0	0.270601	0.633804
     29572.33	0.11599	1701752.0	1298324.0	688665.0	0.270584	0.634075
     29572.83	0.12192	1787549.0	1363716.0	723548.0	0.270632	0.633802
     29573.33	0.12277	1798925.0	1372862.0	728374.0	0.270292	0.633838
     29573.84	0.11995	1753512.0	1338103.0	709754.0	0.270368	0.634090
     29574.34	0.12915	1889208.0	1441306.0	764899.0	0.270608	0.633561
     29574.84	0.11827	1733252.0	1322892.0	701835.0	0.270179	0.633877
     29575.35	0.12707	1850892.0	1412750.0	749782.0	0.270130	0.633511
     29575.85	0.11927	1751932.0	1336985.0	709799.0	0.270302	0.633191
     29576.35	0.10400	1525583.0	1164525.0	618272.0	0.270063	0.633140
     29576.85	0.11655	1704471.0	1300740.0	690497.0	0.270321	0.633277
     29577.36	0.12011	1762011.0	1345100.0	714031.0	0.269987	0.633297
     29577.86	0.11044	1615447.0	1233243.0	654820.0	0.269964	0.633042
     29578.36	0.11288	1652792.0	1261641.0	669863.0	0.270053	0.633095
     29578.87	0.13955	2030304.0	1549905.0	822830.0	0.269992	0.633199
     29579.37	0.12153	1774545.0	1354729.0	719211.0	0.269943	0.633202
     29579.87	0.13820	2021743.0	1543198.0	819698.0	0.270103	0.632676
     29580.38	0.11347	1657659.0	1265568.0	672070.0	0.269885	0.632914
     29580.88	0.12320	1805742.0	1378684.0	732336.0	0.269842	0.632645
     29581.38	0.13015	1899417.0	1450490.0	770384.0	0.269646	0.632768
     29581.89	0.13644	2000132.0	1527325.0	811389.0	0.269695	0.632526
     29582.39	0.13462	1950502.0	1489194.0	791055.0	0.269852	0.632623
     29582.89	0.12639	1854727.0	1416235.0	752346.0	0.269736	0.632561
     29583.40	0.13361	1961513.0	1497642.0	795838.0	0.269824	0.632252
     29583.90	0.12896	1888415.0	1442225.0	766245.0	0.269551	0.632440
     29584.40	0.11006	1607288.0	1227508.0	652124.0	0.269562	0.632507
     29584.91	0.13575	1983697.0	1514820.0	805123.0	0.269666	0.632057
     29585.41	0.13518	1957817.0	1495229.0	794300.0	0.269551	0.632573
     29585.91	0.12351	1796711.0	1372194.0	729229.0	0.269547	0.632178
     29586.42	0.13977	2036060.0	1554935.0	826187.0	0.269583	0.632368
     29586.92	0.13647	2000821.0	1528251.0	812501.0	0.269434	0.631762
     29587.42	0.14401	2100829.0	1604659.0	853033.0	0.269421	0.631868
     29587.93	0.14043	2046778.0	1563296.0	831104.0	0.269470	0.631797
     29588.43	0.12036	1756341.0	1341756.0	713451.0	0.269253	0.631621
     29588.93	0.11684	1697637.0	1297121.0	690043.0	0.269090	0.631149
     29589.44	0.13639	1982312.0	1514857.0	805695.0	0.268943	0.631371
     29589.94	0.12496	1822898.0	1392544.0	740537.0	0.269295	0.631512
     29590.45	0.13198	1917932.0	1465512.0	779882.0	0.269043	0.630817
     29590.95	0.13558	1966913.0	1502993.0	799644.0	0.269007	0.631047
     29591.45	0.12124	1766825.0	1349865.0	718280.0	0.269180	0.630900
     29591.96	0.12233	1781636.0	1361536.0	724317.0	0.268919	0.631140
     29592.46	0.11761	1709900.0	1306537.0	695397.0	0.269055	0.630652
     29592.96	0.12647	1842537.0	1408228.0	749156.0	0.268811	0.631140
     29593.47	0.12403	1806170.0	1379902.0	734529.0	0.269196	0.630538
     29593.97	0.12609	1843934.0	1409043.0	750114.0	0.268991	0.630441
     29594.48	0.13214	1926993.0	1472692.0	783780.0	0.268869	0.630719
     29594.98	0.12217	1783698.0	1363423.0	725625.0	0.268690	0.630720
     29595.48	0.12562	1832743.0	1400527.0	745496.0	0.268965	0.630554
     29595.99	0.11204	1630643.0	1246126.0	663806.0	0.268935	0.629805
     29596.49	0.12057	1754810.0	1341182.0	714436.0	0.268809	0.629813
     29596.99	0.11891	1739466.0	1329848.0	708381.0	0.268514	0.629838
     29597.50	0.12149	1771614.0	1354522.0	721503.0	0.268442	0.629867
     29598.00	0.12101	1770449.0	1353278.0	721138.0	0.268703	0.629455
     29598.51	0.12027	1735140.0	1326610.0	706911.0	0.268461	0.629477
     29599.01	0.12459	1800880.0	1376916.0	733576.0	0.268429	0.629670
     29599.51	0.11476	1673567.0	1279407.0	682089.0	0.268561	0.628992
     29600.02	0.13400	1956743.0	1495959.0	797978.0	0.268514	0.628442
     29600.52	0.12697	1838766.0	1406052.0	749887.0	0.268309	0.628619
     29601.03	0.13091	1902743.0	1455084.0	775717.0	0.268233	0.629031
     29601.53	0.12265	1782780.0	1363174.0	727310.0	0.268358	0.628218
     29602.03	0.14517	2107077.0	1611404.0	860144.0	0.268196	0.627761
     29602.54	0.12561	1820155.0	1391856.0	742654.0	0.268284	0.628163
     29603.04	0.12565	1822992.0	1394254.0	744101.0	0.268120	0.627938
     29603.55	0.12440	1814756.0	1387852.0	740857.0	0.268194	0.627705
     29604.05	0.11934	1739910.0	1330987.0	710327.0	0.267913	0.627951
     29604.55	0.12833	1869841.0	1429981.0	763424.0	0.268192	0.627603
     29605.06	0.11244	1632433.0	1249055.0	667080.0	0.267684	0.627233
     29605.56	0.13511	1966172.0	1503999.0	803048.0	0.267961	0.627468
     29606.07	0.13042	1896847.0	1451049.0	775070.0	0.267906	0.627089
     29606.57	0.12223	1774281.0	1357290.0	725442.0	0.267905	0.626464
     29607.07	0.12579	1832444.0	1402052.0	749630.0	0.267714	0.626112
     29607.58	0.13320	1934613.0	1480502.0	791813.0	0.267526	0.625811
     29608.08	0.12985	1885786.0	1442690.0	771355.0	0.267835	0.626116
     29608.59	0.12848	1869158.0	1430072.0	764695.0	0.267763	0.626003
     29609.09	0.13253	1919650.0	1468996.0	785577.0	0.267564	0.625916
     29609.60	0.13196	1916227.0	1466121.0	784073.0	0.267738	0.625873
     29610.10	0.12944	1881381.0	1439734.0	770545.0	0.267548	0.625116
     29610.60	0.13072	1897198.0	1451763.0	776953.0	0.267599	0.625154
     29611.11	0.12970	1875737.0	1435513.0	768530.0	0.267479	0.624798
     29611.61	0.11741	1707830.0	1307224.0	699812.0	0.267318	0.624849
     29612.12	0.12822	1870280.0	1431556.0	766375.0	0.267326	0.624846
     29612.62	0.11893	1727516.0	1322234.0	708141.0	0.267362	0.624435
     29613.13	0.12837	1863940.0	1426673.0	764409.0	0.267347	0.623997
     29613.63	0.12378	1798774.0	1376537.0	737666.0	0.267534	0.623835
     29614.13	0.11816	1702282.0	1302515.0	697805.0	0.267673	0.624113
     29614.64	0.13376	1943280.0	1487517.0	797404.0	0.267269	0.623502
     29615.14	0.11659	1676372.0	1283143.0	687847.0	0.267319	0.623501
     29615.65	0.11730	1701790.0	1302789.0	698592.0	0.267173	0.623196
     29616.15	0.10727	1546843.0	1184347.0	635114.0	0.267025	0.623142
     29616.66	0.12014	1739301.0	1331462.0	714142.0	0.267206	0.622951
     29617.16	0.10978	1590576.0	1217719.0	653643.0	0.267117	0.622173
     29617.67	0.12683	1845346.0	1412808.0	757933.0	0.267088	0.622740
     29618.17	0.10913	1581848.0	1210998.0	650119.0	0.267149	0.622045
     29618.68	0.12228	1760814.0	1348214.0	723858.0	0.266995	0.621941
     29619.18	0.10819	1565465.0	1198804.0	644025.0	0.266859	0.621342
     29619.68	0.12978	1885342.0	1443374.0	775329.0	0.267126	0.621451
     29620.19	0.12028	1741405.0	1333338.0	716568.0	0.267007	0.620968
     29620.69	0.12338	1791963.0	1371930.0	737261.0	0.267093	0.621032
     29621.20	0.14509	2109778.0	1615530.0	867767.0	0.266920	0.621495
     29621.70	0.11625	1684539.0	1290317.0	693614.0	0.266604	0.620728
     29622.21	0.13767	2005600.0	1536362.0	826123.0	0.266526	0.620429
     29622.71	0.13748	1999740.0	1531465.0	823645.0	0.266792	0.620240
     29623.22	0.13255	1916568.0	1468297.0	790090.0	0.266433	0.619712
     29623.72	0.12357	1797237.0	1376318.0	740371.0	0.266839	0.620016
     29624.23	0.11536	1670849.0	1280210.0	688988.0	0.266308	0.619556
     29624.73	0.13507	1949718.0	1493331.0	803971.0	0.266676	0.619201
     29625.24	0.13060	1876403.0	1437646.0	774278.0	0.266350	0.618831
     29625.74	0.12761	1843308.0	1411889.0	760795.0	0.266633	0.618320
     29626.25	0.13213	1905273.0	1459654.0	786458.0	0.266426	0.618415
     29626.75	0.13533	1956045.0	1498434.0	807494.0	0.266504	0.618240
     29627.26	0.13486	1960886.0	1502550.0	809892.0	0.266233	0.618018
     29627.76	0.13265	1917640.0	1468971.0	791953.0	0.266533	0.617815
     29628.27	0.12456	1786112.0	1368555.0	737835.0	0.266286	0.617790
     29628.77	0.13680	1978776.0	1516013.0	817680.0	0.266395	0.617368
     29629.28	0.12796	1847887.0	1415977.0	763857.0	0.266223	0.617194
     29629.78	0.12958	1872206.0	1434663.0	773915.0	0.266187	0.617223
     29630.28	0.13306	1929087.0	1478143.0	797742.0	0.266260	0.616757
     29630.79	0.12516	1809077.0	1386397.0	748162.0	0.266108	0.616844
     29631.29	0.13442	1936008.0	1484016.0	801139.0	0.265876	0.616473
     29631.80	0.12421	1799881.0	1379736.0	744797.0	0.265828	0.616536
     29632.31	0.12028	1741937.0	1334940.0	720883.0	0.266111	0.616165
     29632.81	0.12367	1783112.0	1366665.0	738139.0	0.265987	0.615997
     29633.32	0.11950	1731376.0	1327261.0	717155.0	0.265799	0.615581
     29633.82	0.12828	1850718.0	1418907.0	766576.0	0.265687	0.615708
     29634.33	0.12454	1814315.0	1390564.0	751447.0	0.265999	0.615464
     29634.83	0.12793	1841828.0	1411699.0	763350.0	0.265965	0.614833
     29635.34	0.12734	1825063.0	1398872.0	756260.0	0.265948	0.615036
     29635.84	0.12307	1788777.0	1371555.0	741784.0	0.265587	0.614642
     29636.35	0.12388	1776981.0	1362160.0	736764.0	0.265844	0.614559
     29636.85	0.12333	1789427.0	1371856.0	742090.0	0.265731	0.614449
     29637.36	0.11745	1691997.0	1297557.0	701894.0	0.265426	0.614456
     29637.86	0.12113	1753750.0	1344605.0	727625.0	0.265656	0.614070
     29638.37	0.11229	1621695.0	1243511.0	673345.0	0.265533	0.613436
     29638.87	0.12448	1807815.0	1386057.0	750250.0	0.265656	0.613812
     29639.38	0.12891	1870440.0	1434337.0	777019.0	0.265471	0.612993
     29639.88	0.11388	1649028.0	1264345.0	684730.0	0.265632	0.613285
     29640.39	0.12299	1770123.0	1357860.0	735459.0	0.265139	0.613170
     29640.89	0.12193	1754847.0	1345865.0	729232.0	0.265345	0.612800
     29641.40	0.12823	1860348.0	1426997.0	773339.0	0.265191	0.612610
     29641.90	0.13418	1938736.0	1487035.0	805625.0	0.265252	0.612921
     29642.41	0.12634	1819252.0	1395113.0	756221.0	0.265450	0.612397
     29642.91	0.13552	1963151.0	1506044.0	816303.0	0.265064	0.612456
     29643.42	0.12538	1800362.0	1381551.0	748963.0	0.264781	0.612272
     29643.93	0.14123	2041761.0	1566266.0	849291.0	0.265118	0.612048
     29644.43	0.11903	1722633.0	1321405.0	716693.0	0.265158	0.611803
     29644.94	0.11699	1690607.0	1297290.0	703612.0	0.264810	0.611806
     29645.44	0.12164	1753212.0	1345127.0	729832.0	0.264961	0.611429
     29645.95	0.12570	1795741.0	1377768.0	747532.0	0.264953	0.611443
     29646.45	0.13083	1874759.0	1438850.0	780391.0	0.264636	0.611804
     29646.96	0.12147	1756543.0	1347995.0	731458.0	0.264729	0.611334
     29647.46	0.12842	1853088.0	1421871.0	771788.0	0.264880	0.611019
     29647.97	0.12769	1842983.0	1414035.0	767355.0	0.264938	0.611253
     29648.48	0.14443	2080488.0	1596733.0	866777.0	0.264643	0.610933
     29648.98	0.11902	1726842.0	1325108.0	719625.0	0.264800	0.610519
     29649.49	0.12935	1867854.0	1433792.0	778530.0	0.264467	0.610670
     29649.99	0.12657	1818527.0	1395649.0	757794.0	0.264667	0.610703
     29650.50	0.12841	1851523.0	1421048.0	771949.0	0.264614	0.610231
     29651.00	0.13825	1993063.0	1529378.0	830644.0	0.264812	0.610415
     29651.51	0.13070	1889075.0	1449971.0	787727.0	0.264544	0.610147
     29652.02	0.12540	1816191.0	1394219.0	757134.0	0.264407	0.610549
     29652.52	0.15503	2247481.0	1725463.0	937626.0	0.264315	0.609900
     29653.03	0.10362	1494243.0	1147309.0	623282.0	0.264201	0.610175
     29653.53	0.13048	1877261.0	1441196.0	783433.0	0.264340	0.609543
     29654.04	0.10741	1548129.0	1188546.0	646252.0	0.264316	0.609296
     29654.54	0.12809	1843784.0	1415949.0	769763.0	0.264020	0.609473
     29655.05	0.12587	1820915.0	1398238.0	759752.0	0.264126	0.609976
     29655.56	0.13304	1923294.0	1476742.0	803190.0	0.264201	0.609002
     29656.06	0.13024	1883871.0	1446598.0	786294.0	0.264114	0.609639
     29656.57	0.14037	2031727.0	1559814.0	848316.0	0.264320	0.609069
     29657.07	0.097953	1411341.0	1083950.0	589583.0	0.263929	0.608952
     29657.58	0.10698	1549695.0	1189887.0	647170.0	0.264200	0.609005
     29658.09	0.099204	1425322.0	1094443.0	595391.0	0.264152	0.608783
     29658.59	0.12000	1728217.0	1327113.0	721691.0	0.264084	0.609164
     29659.10	0.12269	1772184.0	1361025.0	740211.0	0.263975	0.609058
     29659.60	0.11496	1656898.0	1272365.0	692289.0	0.264070	0.608629
     29660.11	0.13628	1975702.0	1517154.0	825540.0	0.264088	0.608554
     29660.62	0.12757	1836974.0	1410788.0	767856.0	0.263971	0.608301
     29661.12	0.11526	1661180.0	1276102.0	694179.0	0.263718	0.608836
     29661.63	0.11763	1701862.0	1306887.0	710933.0	0.264075	0.608825
     29662.13	0.12607	1821101.0	1399137.0	761220.0	0.263586	0.608688
     29662.64	0.13182	1896578.0	1457035.0	793019.0	0.263648	0.608312
     29663.15	0.12929	1863309.0	1431387.0	779063.0	0.263710	0.608307
     29663.65	0.13950	2003581.0	1539176.0	837954.0	0.263689	0.608039
     29664.16	0.14089	2023354.0	1554391.0	846310.0	0.263673	0.607953
     29664.66	0.16511	2376675.0	1826094.0	994162.0	0.263523	0.608034
     29665.17	0.14019	2007610.0	1542316.0	839863.0	0.263660	0.607802
     29665.68	0.083706	1202510.0	924128.0	503012.0	0.263316	0.608237
     29666.18	0.10058	1445774.0	1111034.0	605240.0	0.263354	0.607421
     29666.69	0.12639	1809235.0	1390344.0	757355.0	0.263353	0.607474
     29667.19	0.13221	1899144.0	1459644.0	795033.0	0.263211	0.607564
     29667.70	0.13388	1917559.0	1473344.0	802530.0	0.263518	0.607521
     29668.21	0.14377	2068973.0	1590328.0	866092.0	0.263112	0.607704
     29668.71	0.16724	2403430.0	1847190.0	1006909.0	0.263231	0.606780
     29669.22	0.099675	1434437.0	1102266.0	600485.0	0.263404	0.607386
     29669.73	0.11523	1649736.0	1267845.0	691175.0	0.263297	0.606681
     29670.23	0.12792	1827680.0	1404714.0	765900.0	0.263214	0.606537
     29670.74	0.13256	1891345.0	1453719.0	792481.0	0.263163	0.606712
     29671.25	0.13604	1931113.0	1484691.0	809572.0	0.262890	0.606456
     29671.75	0.12639	1798154.0	1382353.0	753598.0	0.262973	0.606683
     29672.26	0.13208	1885909.0	1450131.0	790807.0	0.262756	0.606355
     29672.76	0.13116	1873488.0	1440257.0	785589.0	0.262980	0.606143
     29673.27	0.11186	1591969.0	1223795.0	667296.0	0.263015	0.606478
     29673.78	0.12409	1782449.0	1370500.0	747735.0	0.262813	0.605882
     29674.28	0.13028	1870909.0	1438511.0	784733.0	0.262816	0.606020
     29674.79	0.12118	1737005.0	1335476.0	728518.0	0.262875	0.606031
     29675.30	0.12650	1801634.0	1385442.0	755825.0	0.262675	0.605965
     29675.80	0.12976	1863896.0	1433603.0	782301.0	0.262478	0.605707
     29676.31	0.11724	1688625.0	1298703.0	708702.0	0.262549	0.605686
     29676.82	0.12447	1784902.0	1372621.0	748987.0	0.262641	0.605756
     29677.32	0.12387	1771709.0	1362418.0	743616.0	0.262684	0.605492
     29677.83	0.11155	1599289.0	1229903.0	671396.0	0.262624	0.605331
     29678.34	0.11935	1689004.0	1298917.0	709156.0	0.262608	0.605211
     29678.84	0.13124	1864477.0	1434147.0	782932.0	0.262410	0.605280
     29679.35	0.12448	1780053.0	1368971.0	747514.0	0.262584	0.605062
     29679.86	0.11841	1692939.0	1302134.0	711237.0	0.262462	0.604754
     29680.36	0.11929	1713891.0	1318753.0	720066.0	0.262080	0.605099
     29680.87	0.12438	1778400.0	1367816.0	747378.0	0.262499	0.604400
     29681.38	0.11494	1647743.0	1267688.0	692283.0	0.262212	0.604955
     29681.88	0.13028	1868894.0	1437562.0	785362.0	0.262398	0.604559
     29682.39	0.13631	1944713.0	1496276.0	817265.0	0.262135	0.604771
     29682.90	0.12356	1769205.0	1361316.0	743663.0	0.262078	0.604619
     29683.40	0.13061	1878911.0	1445647.0	789878.0	0.262135	0.604434
     29683.91	0.13394	1923731.0	1480594.0	808893.0	0.261823	0.604532
     29684.42	0.12487	1787555.0	1375470.0	751769.0	0.262053	0.604122
     29684.92	0.12663	1822116.0	1401727.0	766346.0	0.262293	0.603827
     29685.43	0.11468	1651016.0	1270167.0	694656.0	0.262242	0.603487
     29685.94	0.12119	1744845.0	1342449.0	733845.0	0.262170	0.603953
     29686.44	0.12757	1838855.0	1414961.0	773502.0	0.262041	0.603929
     29686.95	0.12790	1830865.0	1409253.0	770817.0	0.261729	0.603364
     29687.46	0.12691	1824251.0	1403931.0	767950.0	0.261893	0.603307
     29687.97	0.12174	1752050.0	1348488.0	737559.0	0.261803	0.603393
     29688.47	0.11981	1723053.0	1326269.0	725424.0	0.261728	0.603369
     29688.98	0.13748	1970930.0	1516778.0	829920.0	0.261917	0.603014
     29689.49	0.13307	1908121.0	1468600.0	803688.0	0.261809	0.602854
     29689.99	0.13669	1957355.0	1506148.0	824351.0	0.262039	0.602714
     29690.50	0.11409	1639292.0	1261680.0	690520.0	0.261820	0.602755
     29691.01	0.14615	2082915.0	1603558.0	877697.0	0.261543	0.602679
     29691.51	0.12306	1765915.0	1359179.0	744198.0	0.261788	0.602329
     29692.02	0.12535	1798486.0	1384418.0	758069.0	0.261665	0.602261
     29692.53	0.12846	1841957.0	1418240.0	776362.0	0.261412	0.602553
     29693.04	0.11688	1671892.0	1287332.0	704731.0	0.261384	0.602511
     29693.54	0.13051	1860264.0	1432330.0	784394.0	0.261416	0.602146
     29694.05	0.12294	1762709.0	1357261.0	743478.0	0.261383	0.601885
     29694.56	0.13638	1959776.0	1508726.0	826730.0	0.261565	0.601543
     29695.06	0.11495	1646763.0	1268024.0	694797.0	0.261352	0.601595
     29695.57	0.13732	1956605.0	1506638.0	825742.0	0.261330	0.601354
     29696.08	0.11855	1691003.0	1302216.0	713381.0	0.261254	0.601807
     29696.59	0.11995	1718211.0	1323421.0	725290.0	0.261064	0.601404
     29697.09	0.10114	1453455.0	1119608.0	613769.0	0.260965	0.601115
     29697.60	0.12084	1739424.0	1339750.0	734323.0	0.261071	0.601289
     29698.11	0.12506	1794866.0	1382614.0	758505.0	0.260954	0.600382
     29698.62	0.11595	1657985.0	1277079.0	700303.0	0.261028	0.600818
     29699.12	0.11850	1694705.0	1305292.0	716220.0	0.261082	0.600195
     29699.63	0.10663	1520463.0	1171238.0	642582.0	0.260954	0.600322
     29700.14	0.12290	1769262.0	1362998.0	747800.0	0.260876	0.600306
     29700.65	0.12001	1714187.0	1320232.0	724307.0	0.261131	0.600347
     29701.15	0.12245	1753679.0	1350967.0	741475.0	0.260895	0.599934
     29701.66	0.13410	1923405.0	1481778.0	813656.0	0.260854	0.599460
     29702.17	0.11651	1674628.0	1290116.0	707967.0	0.260859	0.600090
     29702.67	0.14995	2160723.0	1664977.0	913973.0	0.260632	0.599766
     29703.18	0.11496	1656436.0	1276454.0	700747.0	0.260582	0.599694
     29703.69	0.13613	1956160.0	1507236.0	827511.0	0.260706	0.599610
     29704.20	0.11779	1685177.0	1298535.0	713119.0	0.260634	0.599344
     29704.70	0.12833	1846229.0	1422920.0	781363.0	0.260434	0.599427
     29705.21	0.12964	1867619.0	1439290.0	790957.0	0.260514	0.598662
     29705.72	0.13748	1974511.0	1521886.0	836281.0	0.260370	0.598741
     29706.23	0.12722	1831688.0	1411566.0	775378.0	0.260538	0.599104
     29706.74	0.13136	1885858.0	1453185.0	798373.0	0.260625	0.598937
     29707.24	0.13322	1920840.0	1479938.0	813472.0	0.260762	0.598444
     29707.75	0.12680	1818696.0	1402101.0	770912.0	0.260148	0.598153
     29708.26	0.13346	1909838.0	1472098.0	809498.0	0.260330	0.598030
     29708.77	0.12814	1842793.0	1420176.0	780976.0	0.260502	0.597992
     29709.27	0.13080	1883390.0	1451929.0	798267.0	0.260180	0.598205
     29709.78	0.13789	1984339.0	1529462.0	841473.0	0.260370	0.597517
     29710.29	0.12925	1854484.0	1429480.0	786373.0	0.260296	0.597635
     29710.80	0.13349	1921186.0	1481228.0	815288.0	0.260071	0.597085
     29711.30	0.12950	1865941.0	1439000.0	791822.0	0.259817	0.597367
     29711.81	0.12051	1710692.0	1318820.0	726011.0	0.260161	0.596928
     29712.32	0.13715	1948693.0	1502502.0	827352.0	0.260027	0.596657
     29712.83	0.12160	1734164.0	1337353.0	736011.0	0.259833	0.597203
     29713.34	0.12038	1719156.0	1325075.0	729466.0	0.260364	0.596912
     29713.84	0.13114	1878020.0	1447989.0	797498.0	0.260042	0.596452
     29714.35	0.11824	1678360.0	1294249.0	712855.0	0.259887	0.596408
     29714.86	0.13266	1890338.0	1457786.0	802801.0	0.259837	0.596567
     29715.37	0.12507	1783166.0	1374805.0	757493.0	0.260079	0.596053
     29715.88	0.11951	1711912.0	1320330.0	727466.0	0.259729	0.596070
     29716.38	0.12863	1849581.0	1426371.0	786202.0	0.259826	0.595675
     29716.89	0.11266	1621427.0	1250740.0	689485.0	0.259571	0.595546
     29717.40	0.12891	1852386.0	1428171.0	787277.0	0.260080	0.595570
     29717.91	0.12611	1802683.0	1390246.0	766465.0	0.259795	0.595447
     29718.41	0.12167	1752138.0	1351247.0	745530.0	0.259809	0.594688
     29718.92	0.11214	1615107.0	1245833.0	687312.0	0.259597	0.594771
     29719.43	0.13963	2009093.0	1549984.0	854868.0	0.259439	0.595053
     29719.94	0.10637	1534928.0	1184186.0	653134.0	0.259428	0.595029
     29720.45	0.12035	1734344.0	1337893.0	738169.0	0.259533	0.594678
     29720.96	0.11789	1699197.0	1310844.0	723311.0	0.259485	0.594587
     29721.46	0.11823	1702787.0	1313446.0	724953.0	0.259612	0.594303
     29721.97	0.13455	1936690.0	1494056.0	824776.0	0.259486	0.594138
     29722.48	0.12927	1862904.0	1437197.0	793387.0	0.259442	0.594139
     29722.99	0.13458	1937888.0	1495136.0	825440.0	0.259382	0.594056
     29723.50	0.14498	2081317.0	1606011.0	886838.0	0.259247	0.593846
     29724.00	0.12271	1764555.0	1361653.0	752106.0	0.259199	0.593577
     29724.51	0.12572	1812943.0	1398863.0	772455.0	0.259292	0.593841
     29725.02	0.12338	1783061.0	1375871.0	760392.0	0.259245	0.593008
     29725.53	0.12100	1740229.0	1343416.0	742175.0	0.258801	0.593386
     29726.04	0.11552	1659171.0	1280566.0	707810.0	0.259016	0.592882
     29726.55	0.12289	1769958.0	1366352.0	755155.0	0.258811	0.592977
     29727.05	0.13480	1934009.0	1492860.0	825361.0	0.258901	0.592628
     29727.56	0.12841	1850064.0	1427792.0	789576.0	0.259091	0.592388
     29728.07	0.12617	1813427.0	1399789.0	773842.0	0.258897	0.592709
     29728.58	0.12412	1781170.0	1375032.0	760758.0	0.258793	0.591917
     29729.09	0.12576	1806762.0	1394251.0	771121.0	0.259179	0.592267
     29729.60	0.13014	1874488.0	1446657.0	800363.0	0.259080	0.591945
     29730.10	0.12570	1809842.0	1397097.0	772930.0	0.258843	0.591963
     29730.61	0.13676	1974417.0	1524284.0	843314.0	0.258748	0.591941
     29731.12	0.11701	1678482.0	1295963.0	717354.0	0.258636	0.591440
     29731.63	0.14235	2024857.0	1563362.0	865070.0	0.258660	0.591783
     29732.14	0.15986	2297552.0	1774021.0	982147.0	0.258595	0.591263
     29732.65	0.19745	2828387.0	2183526.0	1208868.0	0.258766	0.591257
     29733.15	0.065594	945363.0	730285.0	404252.0	0.258134	0.591396
     29733.66	0.078481	1122793.0	866737.0	480113.0	0.258839	0.590714
     29734.17	0.12204	1754756.0	1354963.0	750701.0	0.258556	0.590522
     29734.68	0.12654	1825722.0	1410054.0	781188.0	0.258348	0.590567
     29735.19	0.12468	1795519.0	1386594.0	768214.0	0.258444	0.590537
     29735.70	0.12606	1807333.0	1395964.0	773680.0	0.258267	0.590182
     29736.21	0.17833	2564659.0	1980822.0	1097834.0	0.258314	0.590173
     29736.71	0.14941	2152758.0	1662580.0	921421.0	0.258379	0.590209
     29737.22	0.081947	1168499.0	902438.0	500472.0	0.258375	0.589548
     29737.73	0.080106	1146053.0	885174.0	490727.0	0.258295	0.589896
     29738.24	0.10053	1442494.0	1114043.0	618030.0	0.258378	0.589214
     29738.75	0.11896	1709995.0	1320846.0	732277.0	0.258218	0.589869
     29739.26	0.11085	1591073.0	1228933.0	681964.0	0.258262	0.588925
     29739.77	0.15493	2222049.0	1716524.0	952460.0	0.258128	0.589008
     29740.28	0.17652	2534448.0	1957764.0	1086398.0	0.258173	0.588935
     29740.78	0.12390	1778782.0	1374180.0	762597.0	0.258072	0.588883
     29741.29	0.059730	855361.0	660819.0	366743.0	0.258044	0.588819
     29741.80	0.079415	1139304.0	880339.0	488727.0	0.257866	0.588503
     29742.31	0.13349	1918044.0	1481998.0	822963.0	0.257915	0.588235
     29742.82	0.12116	1732808.0	1339075.0	743713.0	0.257764	0.588079
     29743.33	0.14955	2132962.0	1648548.0	915544.0	0.257617	0.588132
     29743.84	0.11684	1673183.0	1292875.0	717889.0	0.257859	0.588309
     29744.35	0.15564	2231924.0	1723982.0	957534.0	0.258227	0.588031
     29744.86	0.12280	1766087.0	1364656.0	758199.0	0.257864	0.587712
     29745.36	0.11686	1674749.0	1294422.0	719106.0	0.257599	0.587811
     29745.87	0.13016	1871873.0	1446298.0	803638.0	0.257932	0.587614
     29746.38	0.11480	1641364.0	1268687.0	704967.0	0.257545	0.587587
     29746.89	0.13999	2006523.0	1550743.0	862261.0	0.257669	0.586931
     29747.40	0.13441	1927820.0	1490018.0	828035.0	0.257602	0.587488
     29747.91	0.13477	1930035.0	1491806.0	829546.0	0.257551	0.586864
     29748.42	0.17052	2440031.0	1886166.0	1048726.0	0.257465	0.586970
     29748.93	0.11305	1622153.0	1253901.0	697405.0	0.257495	0.586648
     29749.44	0.10105	1450732.0	1121463.0	623560.0	0.257434	0.586944
     29749.95	0.13090	1876025.0	1450423.0	807064.0	0.257300	0.586208
     29750.45	0.13934	2000521.0	1546705.0	860187.0	0.257281	0.586732
     29750.96	0.12997	1864072.0	1441007.0	801826.0	0.257421	0.586206
     29751.47	0.12995	1859361.0	1437392.0	800175.0	0.257403	0.585755
     29751.98	0.14147	2021995.0	1563516.0	869799.0	0.257148	0.586430
     29752.49	0.15551	2225842.0	1721357.0	958307.0	0.257022	0.585700
     29753.00	0.093908	1343197.0	1038559.0	577857.0	0.257218	0.586263
     29753.51	0.12056	1735940.0	1342476.0	747232.0	0.257033	0.585895
     29754.02	0.12239	1751119.0	1354544.0	754068.0	0.256790	0.585738
     29754.53	0.12910	1844603.0	1426064.0	794144.0	0.257346	0.585409
     29755.04	0.12103	1724374.0	1333498.0	742620.0	0.257059	0.585376
     29755.55	0.13061	1867825.0	1444580.0	804556.0	0.256956	0.585283
     29756.06	0.12672	1809606.0	1399359.0	779640.0	0.257095	0.584937
     29756.57	0.13822	1980222.0	1531640.0	853096.0	0.256870	0.585222
     29757.07	0.10857	1546881.0	1196431.0	666461.0	0.256898	0.585117
     29757.58	0.11998	1713878.0	1325834.0	738536.0	0.256717	0.585127
     29758.09	0.11875	1688029.0	1305908.0	727488.0	0.256663	0.585056
     29758.60	0.11795	1685005.0	1302973.0	726130.0	0.257120	0.584675
     29759.11	0.13030	1847601.0	1429256.0	796504.0	0.256734	0.584677
     29759.62	0.10978	1564611.0	1210312.0	674488.0	0.256759	0.584680
     29760.13	0.12843	1822329.0	1409736.0	785916.0	0.256713	0.584308
     29760.64	0.11953	1695572.0	1312108.0	731704.0	0.256385	0.584014
     29761.15	0.11767	1679188.0	1298929.0	724448.0	0.256770	0.583885
     29761.66	0.12400	1771470.0	1370440.0	764195.0	0.256678	0.584064
     29762.17	0.12514	1791450.0	1386177.0	773139.0	0.256476	0.583846
     29762.68	0.13078	1872265.0	1448667.0	808050.0	0.256505	0.583775
     29763.19	0.13665	1943192.0	1503911.0	838644.0	0.256263	0.584038
     29763.70	0.12095	1711632.0	1324349.0	738704.0	0.256526	0.583779
     29764.21	0.12944	1840488.0	1424064.0	794254.0	0.256516	0.583867
     29764.72	0.12523	1785456.0	1381776.0	771216.0	0.256304	0.583156
     29765.23	0.13359	1899988.0	1470373.0	820362.0	0.256331	0.583526
     29765.74	0.12584	1794867.0	1389228.0	775457.0	0.256183	0.583051
     29766.25	0.12223	1726283.0	1336036.0	745618.0	0.256264	0.583249
     29766.76	0.12454	1769013.0	1369595.0	764143.0	0.255907	0.583515
     29767.26	0.12904	1830383.0	1416814.0	790977.0	0.256115	0.582897
     29767.77	0.12153	1738956.0	1345975.0	751274.0	0.256166	0.583104
     29768.28	0.12172	1732749.0	1341165.0	749026.0	0.256171	0.582520
     29768.79	0.12647	1801223.0	1394672.0	778688.0	0.255807	0.582804
     29769.30	0.12943	1838758.0	1423223.0	794812.0	0.256166	0.582574
     29769.81	0.13061	1872900.0	1449825.0	809726.0	0.256045	0.582502
     29770.32	0.13452	1907362.0	1476618.0	824966.0	0.255967	0.582167
     29770.83	0.13453	1894589.0	1467101.0	819197.0	0.255714	0.582719
     29771.34	0.13008	1855864.0	1437131.0	802928.0	0.255702	0.582139
     29771.85	0.12556	1781695.0	1379586.0	770813.0	0.255782	0.582093
     29772.36	0.12530	1784644.0	1381881.0	772118.0	0.255773	0.582064
     29772.87	0.12918	1833479.0	1419630.0	793573.0	0.255819	0.581606
     29773.38	0.12868	1833419.0	1419630.0	793081.0	0.255786	0.582226
     29773.89	0.12538	1782515.0	1379826.0	771355.0	0.256068	0.581564
     29774.40	0.12560	1794406.0	1389609.0	776789.0	0.255652	0.581609
     29774.91	0.11759	1677931.0	1299430.0	726286.0	0.255636	0.581737
     29775.42	0.13165	1873999.0	1451651.0	811368.0	0.255373	0.581735
     29775.93	0.13564	1932174.0	1496534.0	836674.0	0.255494	0.581473
     29776.44	0.10039	1416641.0	1097441.0	613506.0	0.255307	0.581546
     29776.95	0.12584	1797126.0	1392321.0	778494.0	0.255217	0.581366
     29777.46	0.10767	1521053.0	1178399.0	658866.0	0.255246	0.581392
     29777.97	0.12005	1697201.0	1314449.0	734985.0	0.255563	0.581323
     29778.48	0.11087	1576250.0	1220935.0	682891.0	0.255432	0.581037
     29778.99	0.12414	1759596.0	1363060.0	762610.0	0.255352	0.580741
     29779.50	0.11520	1630265.0	1262890.0	706317.0	0.255340	0.581094
     29780.01	0.13794	1948713.0	1509665.0	844342.0	0.255281	0.581085
     29780.52	0.11297	1609661.0	1246800.0	697504.0	0.255443	0.580827
     29781.03	0.10965	1557013.0	1206195.0	674922.0	0.255298	0.580629
     29781.54	0.12169	1732547.0	1342046.0	751120.0	0.255397	0.580385
     29782.05	0.13532	1927023.0	1493015.0	835513.0	0.255179	0.580507
     29782.56	0.12485	1768198.0	1369831.0	766749.0	0.255274	0.580283
     29783.07	0.13435	1905272.0	1476495.0	826447.0	0.254954	0.580291
     29783.58	0.13524	1913704.0	1482608.0	829811.0	0.255238	0.580360
     29784.09	0.13541	1931140.0	1496287.0	837388.0	0.255124	0.580454
     29784.60	0.10919	1538518.0	1192422.0	667654.0	0.254833	0.579972
     29785.12	0.13198	1863505.0	1444079.0	808468.0	0.254987	0.580086
     29785.63	0.12098	1717819.0	1331189.0	745285.0	0.254983	0.580061
     29786.14	0.13100	1874971.0	1453284.0	813996.0	0.254767	0.579626
     29786.65	0.13063	1854270.0	1437183.0	804829.0	0.254806	0.579810
     29787.16	0.13454	1895328.0	1469130.0	822588.0	0.254722	0.579970
     29787.67	0.12930	1823661.0	1413786.0	792224.0	0.254575	0.579182
     29788.18	0.13409	1911773.0	1481515.0	829909.0	0.254966	0.579504
     29788.69	0.12628	1800968.0	1396033.0	782206.0	0.254690	0.579272
     29789.20	0.13344	1891666.0	1466277.0	821954.0	0.254731	0.578797
     29789.71	0.14453	2052602.0	1591415.0	891403.0	0.254485	0.579582
     29790.22	0.13713	1946350.0	1508869.0	845546.0	0.254595	0.579133
     29790.73	0.13156	1858732.0	1441060.0	807514.0	0.254516	0.579174
     29791.24	0.12126	1713637.0	1328549.0	744652.0	0.254531	0.578926
     29791.75	0.13478	1886958.0	1463166.0	819933.0	0.254363	0.579135
     29792.26	0.12304	1744850.0	1353298.0	758645.0	0.254124	0.578766
     29792.77	0.12572	1785450.0	1384263.0	776250.0	0.254503	0.578449
     29793.28	0.13171	1866362.0	1447271.0	811486.0	0.254311	0.578568
     29793.79	0.11707	1644879.0	1275479.0	715090.0	0.254345	0.578669
     29794.30	0.12603	1786821.0	1385352.0	776792.0	0.254484	0.578537
     29794.81	0.12414	1759878.0	1364620.0	765340.0	0.254368	0.578311
     29795.32	0.12913	1828133.0	1417915.0	794975.0	0.254108	0.578632
     29795.84	0.12007	1708655.0	1325320.0	743569.0	0.254053	0.577948
     29796.35	0.12658	1792300.0	1390359.0	779858.0	0.253938	0.578205
     29796.86	0.12994	1834652.0	1422915.0	798166.0	0.254147	0.578146
     29797.37	0.11512	1631611.0	1265657.0	710037.0	0.253977	0.578030
     29797.88	0.11920	1684681.0	1307080.0	733135.0	0.253781	0.578221
     29798.39	0.12053	1692305.0	1312949.0	736722.0	0.253816	0.577820
     29798.90	0.12172	1720474.0	1334796.0	749245.0	0.253821	0.577468
     29799.41	0.11612	1637800.0	1270489.0	712849.0	0.253952	0.577888
     29799.92	0.11894	1679965.0	1303671.0	731659.0	0.253589	0.577625
     29800.43	0.13215	1857235.0	1440928.0	808961.0	0.253801	0.577292
     29800.94	0.11650	1632956.0	1266748.0	711291.0	0.253939	0.577127
     29801.45	0.13240	1864181.0	1446478.0	812349.0	0.253690	0.576957
     29801.97	0.12306	1724298.0	1337739.0	751240.0	0.253839	0.577011
     29802.48	0.13693	1932197.0	1499275.0	842177.0	0.253676	0.576747
     29802.99	0.11869	1667992.0	1294718.0	726773.0	0.253328	0.577434
     29803.50	0.13485	1890035.0	1466554.0	823897.0	0.253680	0.576625
     29804.01	0.12628	1782003.0	1382425.0	776737.0	0.253899	0.576493
     29804.52	0.13124	1860660.0	1443760.0	811103.0	0.253680	0.576611
     29805.03	0.12757	1803408.0	1399645.0	786479.0	0.253460	0.576408
     29805.54	0.11894	1656380.0	1285887.0	722803.0	0.253186	0.576067
     29806.05	0.12478	1766089.0	1370740.0	770683.0	0.253417	0.575829
     29806.56	0.11856	1655570.0	1284868.0	722159.0	0.253489	0.576166
     29807.07	0.12972	1810221.0	1404918.0	789777.0	0.253470	0.575984
     29807.59	0.17144	2420233.0	1878057.0	1055522.0	0.253626	0.576202
     29808.10	0.14103	1982483.0	1538648.0	865437.0	0.253446	0.575425
     29808.61	0.066514	939325.0	728902.0	409898.0	0.253622	0.575631
     29809.12	0.12150	1721746.0	1336805.0	751389.0	0.253056	0.576114
     29809.63	0.12578	1764106.0	1369768.0	770267.0	0.253003	0.575659
     29810.14	0.14002	1956604.0	1519179.0	854573.0	0.253040	0.575323
     29810.65	0.14562	2045658.0	1588456.0	893902.0	0.252957	0.574922
     29811.16	0.11998	1696168.0	1316645.0	740736.0	0.253285	0.575198
     29811.68	0.13983	1977938.0	1535617.0	863911.0	0.253123	0.575218
     29812.19	0.11626	1616980.0	1255364.0	706869.0	0.253135	0.574335
     29812.70	0.11833	1645831.0	1278084.0	719217.0	0.252883	0.574954
     29813.21	0.12829	1793056.0	1392086.0	783818.0	0.253118	0.574382
     29813.72	0.12085	1696666.0	1317809.0	742032.0	0.252695	0.574333
     29814.23	0.13085	1824957.0	1417418.0	798230.0	0.252720	0.574195
     29814.74	0.15016	2099212.0	1630366.0	917981.0	0.252758	0.574383
     29815.25	0.11020	1500714.0	1165466.0	656216.0	0.252820	0.574386
     29815.77	0.13656	1879778.0	1459697.0	822465.0	0.252925	0.573678
     29816.28	0.10994	1533229.0	1190760.0	670950.0	0.252784	0.573652
     29816.79	0.10925	1530627.0	1188977.0	669857.0	0.252584	0.573784
     29817.30	0.11565	1601085.0	1243570.0	700871.0	0.252695	0.573418
     29817.81	0.11714	1641563.0	1275282.0	718835.0	0.252482	0.573291
     29818.32	0.10164	1409335.0	1094807.0	616978.0	0.252540	0.573500
     29818.83	0.14786	2045382.0	1588843.0	895697.0	0.252578	0.573159
     29819.35	0.11983	1659584.0	1289398.0	726843.0	0.252392	0.573220
     29819.86	0.12083	1686659.0	1310431.0	738637.0	0.252394	0.573305
     29820.37	0.10533	1471796.0	1143328.0	644961.0	0.252540	0.572509
     29820.88	0.11127	1571903.0	1221209.0	688642.0	0.252446	0.572875
     29821.39	0.11546	1632808.0	1268704.0	715537.0	0.252305	0.572718
     29821.90	0.12721	1796678.0	1396120.0	787210.0	0.252242	0.572957
     29822.42	0.13526	1908801.0	1483185.0	836959.0	0.252283	0.572172
     29822.93	0.14336	2006399.0	1558532.0	879527.0	0.252597	0.572115
     29823.44	0.14434	2031277.0	1578660.0	891057.0	0.252088	0.571923
     29823.95	0.14338	2015853.0	1566416.0	884180.0	0.252252	0.571885
     29824.46	0.094710	1320523.0	1026177.0	579325.0	0.252188	0.571732
     29824.97	0.12249	1711531.0	1330149.0	750542.0	0.252097	0.572251
     29825.49	0.12022	1686292.0	1310799.0	739790.0	0.251895	0.572026
     29826.00	0.14056	1974800.0	1535084.0	866603.0	0.251882	0.571759
     29826.51	0.12606	1777133.0	1381073.0	779872.0	0.252141	0.571486
     29827.02	0.13672	1928214.0	1498961.0	846364.0	0.251822	0.571578
     29827.53	0.13198	1865381.0	1450090.0	819262.0	0.251840	0.570977
     29828.04	0.13067	1839580.0	1430004.0	807730.0	0.251860	0.571205
     29828.56	0.11732	1646487.0	1280021.0	723143.0	0.251767	0.571025
     29829.07	0.13769	1933404.0	1503130.0	848977.0	0.251733	0.571273
     29829.58	0.13017	1834167.0	1425969.0	805964.0	0.251739	0.570568
     29830.09	0.13702	1926036.0	1497126.0	846160.0	0.251917	0.570594
     29830.60	0.12255	1737737.0	1350880.0	763162.0	0.251827	0.571041
     29831.11	0.14360	2022784.0	1572946.0	888861.0	0.251524	0.570765
     29831.63	0.13665	1924016.0	1495948.0	845766.0	0.251655	0.570273
     29832.14	0.12524	1758344.0	1366916.0	772974.0	0.251815	0.570067
     29832.65	0.11868	1670521.0	1299168.0	734724.0	0.251411	0.569984
     29833.16	0.12836	1809392.0	1406931.0	795935.0	0.251580	0.569648
     29833.67	0.12551	1771479.0	1377664.0	779443.0	0.251425	0.569565
     29834.19	0.12517	1763754.0	1371421.0	775936.0	0.251597	0.569533
     29834.70	0.12903	1823525.0	1418084.0	802355.0	0.251465	0.569511
     29835.21	0.12561	1776745.0	1381673.0	781598.0	0.251488	0.569710
     29835.72	0.13160	1855303.0	1443224.0	816607.0	0.251169	0.569477
     29836.23	0.12073	1695969.0	1319008.0	746430.0	0.251374	0.569333
     29836.75	0.11376	1607796.0	1250505.0	707586.0	0.251317	0.569444
     29837.26	0.12854	1803257.0	1402317.0	794134.0	0.251469	0.568629
     29837.77	0.12006	1676447.0	1303531.0	738050.0	0.251600	0.568820
     29838.28	0.13312	1881268.0	1463208.0	828873.0	0.251315	0.568320
     29838.80	0.11342	1589617.0	1236627.0	700396.0	0.251106	0.568497
     29839.31	0.13047	1830406.0	1423623.0	806248.0	0.251333	0.568569
     29839.82	0.11382	1578910.0	1228250.0	696063.0	0.251144	0.567905
     29840.33	0.12115	1702213.0	1324162.0	750069.0	0.251149	0.568370
     29840.84	0.12194	1713935.0	1333138.0	755574.0	0.251256	0.567813
     29841.36	0.11104	1561636.0	1215428.0	688706.0	0.250638	0.568037
     29841.87	0.13086	1835836.0	1428263.0	809382.0	0.251041	0.567943
     29842.38	0.11658	1636276.0	1273250.0	721475.0	0.250850	0.568030
     29842.89	0.13164	1847193.0	1437017.0	814646.0	0.251098	0.567571
     29843.41	0.13778	1934322.0	1504978.0	853571.0	0.250979	0.567105
     29843.92	0.12191	1718984.0	1337729.0	758523.0	0.250760	0.567356
     29844.43	0.12238	1733395.0	1349086.0	765167.0	0.250655	0.567088
     29844.94	0.14118	1980678.0	1541302.0	874280.0	0.250812	0.566982
     29845.46	0.12586	1773154.0	1380049.0	782786.0	0.250641	0.567015
     29845.97	0.11601	1635230.0	1272718.0	721785.0	0.250629	0.567183
     29846.48	0.12791	1801594.0	1402452.0	795904.0	0.250450	0.566499
     29846.99	0.11649	1640652.0	1277024.0	724404.0	0.250561	0.566938
     29847.50	0.13145	1844712.0	1435636.0	814632.0	0.250715	0.566627
     29848.02	0.11999	1676991.0	1305095.0	740591.0	0.250725	0.566583
     29848.53	0.12590	1768858.0	1376916.0	781826.0	0.250488	0.565969
     29849.04	0.13167	1854551.0	1443346.0	819494.0	0.250679	0.566032
     29849.56	0.13223	1857744.0	1446446.0	821079.0	0.250253	0.566245
     29850.07	0.13371	1874065.0	1459003.0	828413.0	0.250357	0.565997
     29850.58	0.12529	1749737.0	1362268.0	773653.0	0.250315	0.565783
     29851.09	0.13192	1846890.0	1438068.0	816812.0	0.250203	0.565647
     29851.61	0.12801	1787439.0	1391686.0	790439.0	0.250268	0.565683
     29852.12	0.12917	1814017.0	1412216.0	802416.0	0.250384	0.565288
     29852.63	0.12584	1767935.0	1376605.0	782171.0	0.250192	0.565302
     29853.14	0.12466	1752082.0	1364231.0	775743.0	0.250214	0.564525
     29853.66	0.12637	1777912.0	1384867.0	787018.0	0.249836	0.565108
     29854.17	0.12821	1796614.0	1399133.0	795367.0	0.250051	0.564804
     29854.68	0.12275	1716186.0	1336184.0	759790.0	0.250287	0.564531
     29855.19	0.13159	1852077.0	1441832.0	819925.0	0.250393	0.564457
     29855.71	0.12442	1743412.0	1357787.0	772114.0	0.249988	0.564479
     29856.22	0.11893	1674432.0	1303888.0	741656.0	0.250123	0.564220
     29856.73	0.12896	1819525.0	1417084.0	805989.0	0.249974	0.564286
     29857.25	0.11395	1594842.0	1242232.0	706769.0	0.249865	0.563961
     29857.76	0.12407	1727084.0	1345243.0	765152.0	0.249860	0.564255
     29858.27	0.11988	1681284.0	1309970.0	745434.0	0.249554	0.563793
     29858.78	0.11256	1569134.0	1222438.0	695746.0	0.249677	0.563618
     29859.30	0.11711	1633750.0	1272583.0	724386.0	0.249829	0.563480
     29859.81	0.11866	1659667.0	1292820.0	735597.0	0.249791	0.563899
     29860.32	0.12126	1699192.0	1323840.0	753546.0	0.249616	0.563502
     29860.84	0.11093	1542893.0	1202103.0	684330.0	0.249587	0.563388
     29861.35	0.11220	1577805.0	1229433.0	700099.0	0.249482	0.563087
     29861.86	0.12382	1724397.0	1343923.0	765349.0	0.249284	0.563016
     29862.37	0.12410	1736332.0	1352848.0	770555.0	0.249563	0.562856
     29862.89	0.12578	1765909.0	1375995.0	783965.0	0.249488	0.562568
     29863.40	0.12716	1774650.0	1382707.0	787868.0	0.249560	0.562468
     29863.91	0.13030	1817036.0	1415957.0	806701.0	0.249401	0.562608
     29864.43	0.13483	1887774.0	1471298.0	838056.0	0.249253	0.562815
     29864.94	0.13360	1864318.0	1453191.0	828157.0	0.249133	0.562314
     29865.45	0.12032	1684924.0	1313094.0	748005.0	0.249334	0.562732
     29865.97	0.13082	1832995.0	1428635.0	814039.0	0.249232	0.562466
     29866.48	0.13414	1880896.0	1466203.0	835986.0	0.249072	0.561819
     29866.99	0.12753	1772717.0	1381667.0	787544.0	0.249223	0.562127
     29867.50	0.12626	1765719.0	1376399.0	784837.0	0.249087	0.561750
     29868.02	0.13446	1864672.0	1453220.0	828356.0	0.249303	0.562094
     29868.53	0.11013	1532358.0	1194286.0	681329.0	0.249259	0.561258
     29869.04	0.14771	2041784.0	1591296.0	907601.0	0.249275	0.561499
     29869.56	0.11811	1651881.0	1287598.0	734610.0	0.249136	0.561194
     29870.07	0.14900	2084531.0	1625434.0	927153.0	0.248769	0.561412
     29870.58	0.13170	1858270.0	1448924.0	826659.0	0.248825	0.561184
     29871.10	0.12222	1714714.0	1336907.0	762980.0	0.248888	0.560882
     29871.61	0.14317	2006058.0	1563964.0	892678.0	0.248948	0.560753
     29872.12	0.13436	1871922.0	1459484.0	833026.0	0.248883	0.560773
     29872.64	0.13368	1875918.0	1462605.0	834867.0	0.248879	0.560702
     29873.15	0.12352	1720531.0	1341500.0	765831.0	0.248845	0.560582
     29873.66	0.12652	1772181.0	1382094.0	788639.0	0.248611	0.561046
     29874.18	0.14319	1999551.0	1559177.0	890457.0	0.248765	0.560179
     29874.69	0.11136	1551041.0	1209580.0	690764.0	0.248653	0.560230
     29875.20	0.12459	1741879.0	1358434.0	775788.0	0.248632	0.560209
     29875.72	0.12617	1752530.0	1366924.0	780870.0	0.248497	0.559910
     29876.23	0.12777	1787656.0	1394113.0	796260.0	0.248647	0.560088
     29876.74	0.13040	1817020.0	1416925.0	809072.0	0.248709	0.560356
     29877.26	0.12386	1727954.0	1347670.0	769708.0	0.248561	0.560121
     29877.77	0.12068	1686921.0	1315545.0	751577.0	0.248654	0.559833
     29878.29	0.13445	1879592.0	1465662.0	837552.0	0.248748	0.559579
     29878.80	0.10738	1494757.0	1166279.0	666544.0	0.248145	0.559467
     29879.31	0.12849	1782379.0	1390440.0	794509.0	0.248329	0.559651
     29879.83	0.12017	1684455.0	1313828.0	751116.0	0.248497	0.559140
     29880.34	0.11888	1654544.0	1290732.0	737644.0	0.248316	0.559503
     29880.85	0.12134	1688031.0	1316899.0	753257.0	0.248283	0.558629
     29881.37	0.12175	1693717.0	1321606.0	755603.0	0.248078	0.559087
     29881.88	0.11349	1588723.0	1239904.0	708560.0	0.247897	0.559554
     29882.39	0.12938	1801739.0	1405583.0	803534.0	0.248300	0.559188
     29882.91	0.11609	1613022.0	1258734.0	719676.0	0.248003	0.559061
     29883.42	0.11876	1664587.0	1298983.0	742988.0	0.247995	0.558657
     29883.94	0.13310	1847902.0	1442147.0	824798.0	0.247918	0.558750
     29884.45	0.13121	1823931.0	1423786.0	814304.0	0.247675	0.558741
     29884.96	0.12406	1724175.0	1345738.0	769957.0	0.247806	0.558363
     29885.48	0.13924	1918854.0	1497633.0	857263.0	0.247842	0.557896
     29885.99	0.11317	1572506.0	1227131.0	702238.0	0.247992	0.558162
     29886.50	0.14039	1954776.0	1525794.0	873082.0	0.247761	0.558241
     29887.02	0.11815	1634275.0	1275746.0	729963.0	0.247668	0.558293
     29887.53	0.12256	1704679.0	1330274.0	761664.0	0.247992	0.557635
     29888.05	0.12800	1782259.0	1391175.0	796475.0	0.247733	0.557708
     29888.56	0.12536	1751770.0	1367141.0	782872.0	0.247905	0.557508
     29889.07	0.12709	1769944.0	1381445.0	791356.0	0.247818	0.557137
     29889.59	0.12771	1766388.0	1378895.0	789713.0	0.247654	0.557368
     29890.10	0.12111	1692279.0	1321074.0	756555.0	0.247631	0.557425
     29890.62	0.12788	1784442.0	1393285.0	798264.0	0.247441	0.556980
     29891.13	0.12361	1730866.0	1351139.0	774126.0	0.247674	0.556969
     29891.64	0.12740	1755733.0	1370905.0	785652.0	0.247415	0.556712
     29892.16	0.13855	1920910.0	1499543.0	859535.0	0.247639	0.556524
     29892.67	0.12910	1782483.0	1392017.0	797825.0	0.247254	0.556620
     29893.19	0.14108	1965791.0	1534833.0	879524.0	0.247473	0.556796
     29893.70	0.13134	1826258.0	1426039.0	817309.0	0.247368	0.556639
     29894.21	0.11877	1637221.0	1278120.0	732736.0	0.247610	0.556360
     29894.73	0.13121	1824451.0	1424645.0	816487.0	0.247356	0.556667
     29895.24	0.11961	1678908.0	1310935.0	751505.0	0.247403	0.556418
     29895.76	0.12102	1684723.0	1315645.0	754244.0	0.247274	0.556366
     29896.27	0.13117	1832577.0	1430997.0	820557.0	0.247352	0.556143
     29896.78	0.12909	1805077.0	1409576.0	808239.0	0.247314	0.556186
     29897.30	0.13235	1849001.0	1444186.0	828137.0	0.247100	0.556123
     29897.81	0.14433	2007846.0	1568420.0	899759.0	0.246994	0.555697
     29898.33	0.093283	1305710.0	1019895.0	585094.0	0.247047	0.555682
     29898.84	0.12897	1800979.0	1406565.0	806536.0	0.247180	0.556157
     29899.36	0.11280	1582053.0	1235995.0	709019.0	0.246847	0.555749
     29899.87	0.12051	1678417.0	1310678.0	752017.0	0.247307	0.555541
     29900.38	0.11394	1589677.0	1241949.0	712661.0	0.246849	0.555431
     29900.90	0.11978	1674107.0	1308092.0	750799.0	0.246710	0.555187
     29901.41	0.12875	1797297.0	1403826.0	805941.0	0.247083	0.554946
     29901.93	0.15670	2176569.0	1700667.0	976086.0	0.246729	0.555225
     29902.44	0.076056	1064017.0	831411.0	477224.0	0.246682	0.555138
     29902.96	0.090088	1251191.0	977411.0	561064.0	0.246944	0.555072
     29903.47	0.12504	1744512.0	1362935.0	782577.0	0.246834	0.554803
     29903.98	0.12986	1809152.0	1413908.0	811824.0	0.246501	0.554829
     29904.50	0.12558	1745974.0	1364442.0	783476.0	0.246567	0.554760
     29905.01	0.13049	1821661.0	1423216.0	817432.0	0.246830	0.554507
     29905.53	0.12373	1721895.0	1345835.0	772947.0	0.246411	0.554559
     29906.04	0.13866	1938231.0	1514660.0	869987.0	0.246585	0.554468
     29906.56	0.12529	1735668.0	1356708.0	779268.0	0.246331	0.554461
     29907.07	0.13249	1848845.0	1445281.0	830228.0	0.246257	0.554359
     29907.59	0.11871	1652007.0	1291093.0	741774.0	0.246502	0.554200
     29908.10	0.14025	1955537.0	1528629.0	878810.0	0.246294	0.553558
     29908.62	0.13197	1836757.0	1435580.0	825005.0	0.246433	0.553935
     29909.13	0.12795	1765344.0	1379917.0	793117.0	0.246322	0.553808
     29909.64	0.14640	2032807.0	1589066.0	913530.0	0.246271	0.553585
     29910.16	0.17712	2460861.0	1923587.0	1105717.0	0.246320	0.553698
     29910.67	0.082248	1142369.0	892952.0	513413.0	0.246327	0.553452
     29911.19	0.11196	1559480.0	1219109.0	700953.0	0.246232	0.553435
     29911.70	0.13055	1798634.0	1406056.0	808561.0	0.246239	0.553288
     29912.22	0.12758	1772270.0	1386008.0	797015.0	0.245834	0.553309
     29912.73	0.12966	1804969.0	1411433.0	811880.0	0.245938	0.553008
     29913.25	0.14345	1989297.0	1555343.0	894924.0	0.246085	0.552713
     29913.76	0.13423	1863773.0	1457417.0	838527.0	0.245937	0.552774
     29914.28	0.12703	1763346.0	1378811.0	793017.0	0.245992	0.553132
     29914.79	0.12659	1763449.0	1379036.0	793343.0	0.245887	0.552884
     29915.31	0.12410	1726424.0	1350187.0	776717.0	0.245809	0.552922
     29915.82	0.12698	1772062.0	1385346.0	797593.0	0.246194	0.552107
     29916.34	0.13104	1823448.0	1426043.0	821026.0	0.245826	0.552104
     29916.85	0.12452	1718479.0	1343955.0	773522.0	0.245823	0.552418
     29917.37	0.12921	1792069.0	1401656.0	806991.0	0.245716	0.552097
     29917.88	0.11746	1636021.0	1279674.0	736608.0	0.245662	0.552305
     29918.40	0.13128	1820389.0	1423803.0	819608.0	0.245719	0.552261
     29918.91	0.12040	1662137.0	1300396.0	748887.0	0.245435	0.551836
     29919.43	0.12912	1771621.0	1385651.0	797813.0	0.245725	0.552051
     29919.94	0.11543	1576671.0	1233374.0	710132.0	0.245562	0.552058
     29920.46	0.12153	1680468.0	1314843.0	757193.0	0.245355	0.551854
     29920.97	0.12421	1722043.0	1347178.0	776210.0	0.245499	0.551344
     29921.49	0.12786	1775220.0	1388854.0	800168.0	0.245445	0.551413
     29922.00	0.12272	1701813.0	1331503.0	767095.0	0.245386	0.551453
     29922.52	0.11683	1615528.0	1263849.0	728773.0	0.245500	0.550555
     29923.03	0.12827	1777969.0	1391607.0	801747.0	0.245013	0.551421
     29923.55	0.10819	1501315.0	1174909.0	676859.0	0.245151	0.551483
     29924.06	0.12261	1694789.0	1326179.0	764419.0	0.245256	0.550941
     29924.58	0.12215	1694544.0	1325742.0	764407.0	0.245441	0.550627
     29925.09	0.12034	1643076.0	1285577.0	741081.0	0.245362	0.550853
     29925.61	0.13233	1823932.0	1427570.0	822824.0	0.245021	0.550987
     29926.12	0.12701	1768732.0	1384370.0	798337.0	0.245018	0.550470
     29926.64	0.12940	1787058.0	1398186.0	806728.0	0.245395	0.549944
     29927.15	0.12065	1680504.0	1315172.0	758452.0	0.245126	0.550443
     29927.67	0.13276	1832300.0	1434472.0	827590.0	0.244775	0.550034
     29928.18	0.12500	1728857.0	1352969.0	780713.0	0.245159	0.549849
     29928.70	0.12859	1772518.0	1387369.0	800567.0	0.244992	0.549844
     29929.21	0.12460	1724145.0	1349840.0	778904.0	0.244745	0.549854
     29929.73	0.12411	1725610.0	1350803.0	779718.0	0.244881	0.549522
     29930.24	0.12913	1786733.0	1398951.0	807002.0	0.244666	0.550152
     29930.76	0.11563	1602566.0	1254626.0	724374.0	0.244769	0.549285
     29931.27	0.12958	1796249.0	1406183.0	811522.0	0.244822	0.549723
     29931.79	0.11779	1631833.0	1277604.0	737457.0	0.244717	0.549534
     29932.31	0.12988	1800087.0	1409559.0	813836.0	0.244558	0.549273
     29932.82	0.12770	1766037.0	1382596.0	798193.0	0.244775	0.549368
     29933.34	0.12948	1798596.0	1408616.0	813561.0	0.244399	0.548942
     29933.85	0.13653	1882912.0	1474457.0	851587.0	0.244530	0.548943
     29934.37	0.12507	1733649.0	1357314.0	783959.0	0.244721	0.548906
     29934.88	0.13027	1812486.0	1419624.0	820086.0	0.244307	0.548738
     29935.40	0.12463	1730200.0	1355043.0	782722.0	0.244404	0.548811
     29935.91	0.12951	1797081.0	1407136.0	813394.0	0.244607	0.548096
     29936.43	0.12617	1747912.0	1369226.0	791264.0	0.244176	0.548369
     29936.94	0.12635	1744442.0	1366520.0	789491.0	0.244167	0.548634
     29937.46	0.13457	1857969.0	1455561.0	841199.0	0.244093	0.548318
     29937.98	0.12100	1682379.0	1317680.0	761779.0	0.244336	0.547971
     29938.49	0.13101	1814239.0	1420844.0	821432.0	0.244415	0.547957
     29939.01	0.12930	1797931.0	1408422.0	814451.0	0.244167	0.547711
     29939.52	0.11607	1618929.0	1268349.0	733119.0	0.244049	0.548163
     29940.04	0.12502	1738140.0	1361602.0	787353.0	0.244154	0.547741
     29940.55	0.12445	1733561.0	1358204.0	785206.0	0.244014	0.547972
     29941.07	0.11874	1653441.0	1295525.0	749602.0	0.243943	0.547129
     29941.59	0.12163	1695566.0	1328529.0	768377.0	0.243944	0.547547
     29942.10	0.11151	1551913.0	1215772.0	703367.0	0.244109	0.547256
     29942.62	0.12777	1773981.0	1389950.0	804239.0	0.243958	0.547127
     29943.13	0.11241	1564515.0	1225731.0	709439.0	0.244038	0.546818
     29943.65	0.10452	1458852.0	1142857.0	661402.0	0.244119	0.546925
     29944.16	0.11781	1626617.0	1274478.0	738038.0	0.243966	0.546297
     29944.68	0.11690	1620512.0	1270178.0	735423.0	0.243585	0.546466
     29945.20	0.12738	1774335.0	1390489.0	804786.0	0.243770	0.546834
     29945.71	0.11931	1652544.0	1295434.0	749596.0	0.243470	0.547067
     29946.23	0.12238	1704402.0	1335560.0	773323.0	0.243864	0.546409
     29946.74	0.12663	1763698.0	1381899.0	800227.0	0.243954	0.546318
     29947.26	0.13050	1817644.0	1424702.0	825108.0	0.243578	0.546204
     29947.78	0.13208	1834993.0	1438315.0	832925.0	0.243568	0.546284
     29948.29	0.12341	1715538.0	1344661.0	779111.0	0.243585	0.545744
     29948.81	0.14449	2008896.0	1574558.0	912106.0	0.243611	0.545974
     29949.32	0.11734	1635596.0	1282161.0	742382.0	0.243460	0.546438
     29949.84	0.14148	1971608.0	1545568.0	895131.0	0.243458	0.546177
     29950.36	0.11395	1583258.0	1241356.0	719411.0	0.243280	0.545527
     29950.87	0.13898	1931903.0	1514869.0	878165.0	0.243177	0.545250
     29951.39	0.13001	1812045.0	1420340.0	823169.0	0.243560	0.545490
     29951.90	0.12921	1795493.0	1407655.0	815974.0	0.243354	0.545298
     29952.42	0.12209	1699759.0	1332581.0	772337.0	0.243369	0.545452
     29952.94	0.13160	1832020.0	1436574.0	832540.0	0.243158	0.545535
     29953.45	0.13847	1922118.0	1506683.0	873552.0	0.243517	0.545098
     29953.97	0.13409	1864089.0	1461999.0	847834.0	0.242968	0.544875
     29954.48	0.13027	1813402.0	1422465.0	824611.0	0.242813	0.545235
     29955.00	0.13683	1904929.0	1493782.0	866394.0	0.243134	0.544727
     29955.52	0.13319	1850963.0	1451522.0	842080.0	0.243093	0.544493
     29956.03	0.12560	1743344.0	1367407.0	793564.0	0.242889	0.544137
     29956.55	0.12721	1766189.0	1385217.0	803541.0	0.242967	0.544584
     29957.07	0.12183	1689055.0	1324672.0	768653.0	0.243004	0.544281
     29957.58	0.13791	1920341.0	1506419.0	874308.0	0.242767	0.544058
     29958.10	0.12367	1720412.0	1349464.0	783410.0	0.242856	0.543807
     29958.61	0.12742	1770467.0	1388573.0	806046.0	0.242967	0.543891
     29959.13	0.12408	1713969.0	1344418.0	780741.0	0.242851	0.543473
     29959.65	0.12508	1730030.0	1357402.0	787880.0	0.242566	0.543982
     29960.16	0.12035	1661512.0	1303222.0	756792.0	0.242888	0.543506
     29960.68	0.12622	1735469.0	1361497.0	790344.0	0.242693	0.543872
     29961.20	0.12411	1707201.0	1339493.0	777540.0	0.242564	0.543911
     29961.71	0.13027	1796922.0	1409929.0	818811.0	0.242536	0.543441
     29962.23	0.12264	1683000.0	1320611.0	767122.0	0.242483	0.543204
     29962.75	0.11968	1640626.0	1287282.0	747857.0	0.242545	0.543077
     29963.26	0.12012	1653625.0	1297490.0	754138.0	0.242538	0.542612
     29963.78	0.12655	1743604.0	1368197.0	794676.0	0.242460	0.543315
     29964.30	0.11002	1511693.0	1186580.0	689496.0	0.242155	0.542870
     29964.81	0.12679	1745144.0	1369115.0	795721.0	0.242673	0.542671
     29965.33	0.11775	1622161.0	1272963.0	739571.0	0.242412	0.543032
     29965.84	0.12803	1770544.0	1389318.0	807547.0	0.242474	0.542567
     29966.36	0.12074	1668731.0	1309306.0	761039.0	0.242566	0.542568
     29966.88	0.12275	1676178.0	1315567.0	765039.0	0.242248	0.542096
     29967.39	0.12614	1727084.0	1355667.0	788242.0	0.242141	0.542244
     29967.91	0.14623	2009819.0	1577373.0	917357.0	0.242284	0.542019
     29968.43	0.11178	1524912.0	1197001.0	696083.0	0.242117	0.542106
     29968.94	0.11251	1544131.0	1212269.0	705090.0	0.241967	0.541924
     29969.46	0.13576	1858038.0	1458564.0	848429.0	0.242069	0.541821
     29969.98	0.13247	1812427.0	1422790.0	827858.0	0.242047	0.541533
     29970.49	0.11697	1593714.0	1250664.0	728031.0	0.242393	0.541086
     29971.01	0.12786	1758256.0	1380387.0	803240.0	0.241959	0.541466
     29971.53	0.14016	1915981.0	1504550.0	875603.0	0.241736	0.541336
     29972.04	0.13391	1839114.0	1443844.0	840341.0	0.241975	0.541257
     29972.56	0.10850	1482248.0	1163605.0	677527.0	0.242037	0.540829
     29973.08	0.11214	1536486.0	1206427.0	702277.0	0.241835	0.541090
     29973.60	0.12729	1738020.0	1364521.0	794589.0	0.241943	0.540734
     29974.11	0.12712	1733659.0	1361403.0	793243.0	0.241718	0.540141
     29974.63	0.12862	1760744.0	1382464.0	804921.0	0.241869	0.540879
     29975.15	0.13741	1868353.0	1466935.0	854346.0	0.241882	0.540594
     29975.66	0.13672	1883817.0	1478944.0	861295.0	0.241972	0.540647
     29976.18	0.13730	1889062.0	1483489.0	863824.0	0.241684	0.540783
     29976.70	0.13524	1862575.0	1463200.0	851688.0	0.241334	0.541161
     29977.21	0.10600	1456857.0	1144267.0	666762.0	0.241517	0.540086
     29977.73	0.13267	1824939.0	1433311.0	835253.0	0.241559	0.540008
     29978.25	0.12655	1736032.0	1363274.0	794306.0	0.241713	0.540176
     29978.76	0.11765	1617711.0	1270717.0	740593.0	0.241431	0.539885
     29979.28	0.14533	2004805.0	1574568.0	917370.0	0.241566	0.540225
     29979.80	0.12282	1681564.0	1320727.0	770011.0	0.241542	0.539533
     29980.32	0.14899	2042247.0	1604483.0	935403.0	0.241249	0.539579
     29980.83	0.15158	2088437.0	1640822.0	956495.0	0.241219	0.539677
     29981.35	0.084770	1144604.0	899092.0	524148.0	0.241429	0.539611
     29981.87	0.12495	1693447.0	1330479.0	775858.0	0.241227	0.539325
     29982.38	0.10379	1410796.0	1108610.0	646442.0	0.241047	0.539379
     29982.90	0.12238	1663427.0	1306980.0	762462.0	0.241161	0.538922
     29983.42	0.11869	1616672.0	1270251.0	741066.0	0.241155	0.538880
     29983.94	0.14192	1940774.0	1524873.0	889700.0	0.241176	0.538782
     29984.45	0.10534	1445292.0	1135515.0	662599.0	0.241225	0.538672
     29984.97	0.14697	2024908.0	1590970.0	928170.0	0.241180	0.538884
     29985.49	0.079311	1087759.0	854511.0	498550.0	0.241346	0.538825
     29986.00	0.12737	1743777.0	1370069.0	799612.0	0.241192	0.538490
     29986.52	0.10105	1382437.0	1085995.0	633845.0	0.241351	0.538447
     29987.04	0.10155	1364769.0	1071907.0	625728.0	0.241546	0.538279
     29987.56	0.14020	1891431.0	1486690.0	867692.0	0.240782	0.538471
     29988.07	0.12095	1631620.0	1282226.0	748330.0	0.240976	0.538509
     29988.59	0.16612	2267105.0	1781721.0	1039728.0	0.240924	0.538621
     29989.11	0.16228	2212582.0	1739275.0	1015533.0	0.240692	0.538055
     29989.63	0.073206	998588.0	785001.0	458541.0	0.240657	0.537635
     29990.14	0.12192	1673520.0	1315773.0	768197.0	0.240505	0.538133
     29990.66	0.12646	1743620.0	1370533.0	800452.0	0.240764	0.537778
     29991.18	0.12745	1751987.0	1377259.0	804691.0	0.240655	0.537392
     29991.70	0.13726	1881574.0	1478977.0	864060.0	0.240758	0.537464
     29992.21	0.10191	1405017.0	1104657.0	645279.0	0.240515	0.537607
     29992.73	0.18336	2524308.0	1984484.0	1159661.0	0.240608	0.537231
     29993.25	0.15978	2205463.0	1733856.0	1012816.0	0.240590	0.537613
     29993.77	0.076347	1043634.0	820445.0	479304.0	0.240617	0.537512
     29994.28	0.13208	1819744.0	1430785.0	835809.0	0.240473	0.537578
     29994.80	0.10433	1435880.0	1129232.0	660104.0	0.240240	0.536896
     29995.32	0.13943	1918484.0	1508408.0	881753.0	0.240481	0.536898
     29995.84	0.13895	1914912.0	1505888.0	880145.0	0.240289	0.537051
     29996.35	0.14028	1929548.0	1517411.0	887214.0	0.240280	0.536675
     29996.87	0.20303	2784205.0	2189707.0	1280272.0	0.240195	0.536695
     29997.39	0.096551	1330460.0	1046064.0	611633.0	0.240490	0.536657
     29997.91	0.086736	1197258.0	941661.0	550553.0	0.240144	0.536722
     29998.42	0.13338	1823201.0	1433914.0	838382.0	0.240186	0.536689
     29998.94	0.12388	1700938.0	1337774.0	782535.0	0.240173	0.536224
     29999.46	0.12471	1713786.0	1348125.0	788210.0	0.239990	0.536705
     29999.98	0.13121	1792737.0	1410377.0	825075.0	0.239886	0.536138
     30000.50	0.11835	1625156.0	1278556.0	747575.0	0.239872	0.536652
     30001.01	0.12701	1743763.0	1371355.0	802405.0	0.240246	0.535941
     30001.53	0.12493	1717886.0	1351618.0	790743.0	0.239792	0.536085
     30002.05	0.12614	1726214.0	1358064.0	794991.0	0.239870	0.535485
     30002.57	0.12423	1709785.0	1345574.0	787135.0	0.239547	0.536176
     30003.08	0.12465	1708362.0	1344132.0	786704.0	0.239787	0.535652
     30003.60	0.12406	1705995.0	1342404.0	786338.0	0.239686	0.534831
     30004.12	0.12403	1704133.0	1340935.0	784872.0	0.239689	0.535602
     30004.64	0.12268	1684412.0	1325275.0	775902.0	0.239797	0.535349
     30005.16	0.12042	1654679.0	1302421.0	762252.0	0.239382	0.535703
     30005.67	0.11635	1594079.0	1254658.0	734585.0	0.239433	0.535313
     30006.19	0.12107	1660205.0	1306505.0	764971.0	0.239585	0.535273
     30006.71	0.11117	1514452.0	1191622.0	697950.0	0.239738	0.534923
     30007.23	0.13157	1811336.0	1425163.0	834629.0	0.239779	0.535054
     30007.75	0.12571	1710621.0	1346398.0	788618.0	0.239424	0.534906
     30008.26	0.11666	1581036.0	1244416.0	729126.0	0.239414	0.534575
     30008.78	0.12238	1667662.0	1312687.0	769154.0	0.239346	0.534540
     30009.30	0.13871	1888673.0	1486794.0	871024.0	0.239252	0.534708
     30009.82	0.11684	1595439.0	1255779.0	735574.0	0.239393	0.534860
     30010.34	0.14002	1912199.0	1505099.0	882194.0	0.239395	0.534202
     30010.86	0.11565	1573981.0	1239217.0	726470.0	0.239128	0.534038
     30011.37	0.14101	1912558.0	1505700.0	882719.0	0.239184	0.534006
     30011.89	0.12784	1745971.0	1374653.0	805666.0	0.239110	0.534287
     30012.41	0.11793	1607517.0	1265696.0	741890.0	0.239069	0.534176
     30012.93	0.13178	1792384.0	1411433.0	827312.0	0.238941	0.534179
     30013.45	0.12305	1679318.0	1322056.0	775179.0	0.239200	0.533849
     30013.96	0.12665	1705705.0	1342815.0	787506.0	0.239210	0.533652
     30014.48	0.12217	1660904.0	1307667.0	766895.0	0.239117	0.533650
     30015.00	0.12659	1733544.0	1364819.0	800521.0	0.239146	0.533514
     30015.52	0.12959	1764389.0	1389385.0	814972.0	0.238943	0.533463
     30016.04	0.12676	1717509.0	1352185.0	793194.0	0.239153	0.533409
     30016.56	0.13370	1810560.0	1425830.0	836507.0	0.238882	0.533274
     30017.07	0.13011	1764918.0	1389891.0	815353.0	0.238879	0.533359
     30017.59	0.12115	1650120.0	1299661.0	762686.0	0.238745	0.533012
     30018.11	0.13154	1786139.0	1406775.0	825631.0	0.238756	0.532907
     30018.63	0.12859	1753792.0	1381334.0	810698.0	0.238731	0.532909
     30019.15	0.12733	1735187.0	1366820.0	802197.0	0.238628	0.532888
     30019.67	0.13343	1814269.0	1429004.0	839063.0	0.238705	0.532447
     30020.18	0.12241	1651551.0	1301242.0	764157.0	0.238396	0.532301
     30020.70	0.12871	1736297.0	1367927.0	803370.0	0.238458	0.532236
     30021.22	0.13580	1835712.0	1446116.0	849337.0	0.238551	0.532181
     30021.74	0.11436	1550463.0	1221270.0	717497.0	0.238662	0.531878
     30022.26	0.12959	1764229.0	1389063.0	815944.0	0.239084	0.532039
     30022.78	0.11644	1585530.0	1249021.0	733854.0	0.238559	0.531805
     30023.30	0.12952	1768805.0	1393528.0	818578.0	0.238466	0.532025
     30023.81	0.12312	1667733.0	1314000.0	771739.0	0.238389	0.532185
     30024.33	0.11302	1533753.0	1208664.0	710173.0	0.238202	0.531762
     30024.85	0.11925	1620112.0	1276320.0	750170.0	0.238514	0.531436
     30025.37	0.13244	1803753.0	1421344.0	835377.0	0.238267	0.531475
     30025.89	0.10234	1383946.0	1090564.0	641022.0	0.238244	0.531386
     30026.41	0.12099	1638782.0	1291138.0	758855.0	0.238429	0.531469
     30026.93	0.10435	1414855.0	1115062.0	655390.0	0.238117	0.531435
     30027.44	0.12445	1687277.0	1329724.0	781852.0	0.238145	0.531061
     30027.96	0.12010	1626298.0	1281662.0	753684.0	0.238149	0.530940
     30028.48	0.12096	1625647.0	1281315.0	753635.0	0.238019	0.530734
     30029.00	0.13545	1841420.0	1451198.0	853812.0	0.238148	0.530434
     30029.52	0.13273	1789566.0	1410211.0	829459.0	0.238234	0.530721
     30030.04	0.12798	1742757.0	1373619.0	807706.0	0.238019	0.531006
     30030.56	0.11906	1600494.0	1261645.0	742302.0	0.237896	0.530416
     30031.08	0.12921	1749412.0	1379013.0	811632.0	0.237912	0.530076
     30031.60	0.13086	1754329.0	1382663.0	813370.0	0.238075	0.530581
     30032.11	0.13277	1795417.0	1415686.0	833040.0	0.237623	0.530288
     30032.63	0.13843	1857047.0	1463816.0	861789.0	0.237941	0.529792
     30033.15	0.16439	2239320.0	1765340.0	1039226.0	0.237829	0.529867
     30033.67	0.12255	1659909.0	1308704.0	770396.0	0.237725	0.529888
     30034.19	0.090148	1222363.0	963717.0	567391.0	0.237743	0.529749
     30034.71	0.12654	1709845.0	1348298.0	793740.0	0.237560	0.529842
     30035.23	0.12492	1689676.0	1332378.0	784496.0	0.237571	0.529679
     30035.75	0.13939	1871580.0	1475499.0	869155.0	0.237787	0.529230
     30036.27	0.12914	1746918.0	1377432.0	811617.0	0.237632	0.528948
     30036.78	0.13506	1833031.0	1445280.0	851486.0	0.237668	0.529075
     30037.30	0.14840	1999613.0	1576665.0	928849.0	0.237642	0.529121
     30037.82	0.12877	1743913.0	1375181.0	809961.0	0.237546	0.529355
     30038.34	0.11892	1610906.0	1270605.0	748805.0	0.237304	0.528770
     30038.86	0.13026	1770773.0	1396797.0	823059.0	0.237234	0.528909
     30039.38	0.12654	1720174.0	1356573.0	799591.0	0.237464	0.528617
     30039.90	0.13045	1768635.0	1394838.0	822146.0	0.237430	0.528616
     30040.42	0.13016	1760317.0	1388352.0	818615.0	0.237376	0.528259
     30040.94	0.12716	1703185.0	1343334.0	791609.0	0.237345	0.528842
     30041.46	0.11816	1594980.0	1257963.0	741413.0	0.237367	0.528691
     30041.98	0.12362	1668997.0	1316759.0	776178.0	0.237049	0.528547
     30042.50	0.12750	1717546.0	1355001.0	799112.0	0.237094	0.528056
     30043.01	0.12054	1617131.0	1275735.0	752463.0	0.237131	0.527926
     30043.53	0.12959	1755047.0	1384332.0	816453.0	0.237278	0.528004
     30044.05	0.12479	1677657.0	1323751.0	780541.0	0.236929	0.528237
     30044.57	0.13213	1770600.0	1397018.0	823895.0	0.236979	0.528052
     30045.09	0.11136	1491620.0	1177143.0	694369.0	0.236772	0.527842
     30045.61	0.13056	1751367.0	1381652.0	815144.0	0.237117	0.527670
     30046.13	0.11796	1596888.0	1259710.0	743222.0	0.237175	0.527642
     30046.65	0.11762	1583113.0	1249353.0	737426.0	0.236767	0.527215
     30047.17	0.12244	1643966.0	1297251.0	765575.0	0.236864	0.527376
     30047.69	0.12327	1663581.0	1312650.0	775093.0	0.236925	0.526820
     30048.21	0.10844	1468547.0	1159089.0	684139.0	0.236639	0.527229
     30048.73	0.13420	1812147.0	1430080.0	844241.0	0.236782	0.527048
     30049.25	0.12840	1714635.0	1352873.0	799177.0	0.236970	0.526403
