# Diamond Light Source
# Instrument: B18-CORE XAS Date: Thu, 28 Jul 2016 01:42:01 BST
# Ring energy:   3.0
# Ring current - start: 301.0
# Primary slits:  vertical gap=  2.4; horizontal gap= 52.0; vertical offset=  0.4; horizontal offset= -1.0
# Secondary slits:  vertical gap=  3.5; horizontal gap= 23.0; vertical offset=  5.3; horizontal offset= -14.5
# OH Mirror Coating: Pt
# White beam filter: 140um PyC
# Crystal cut: Si(311)
# PostDCM slits:  vertical gap= 18.0; horizontal gap= 28.0; vertical offset= -9.1; horizontal offset= -16.5
# Experimental slits:  vertical gap= 28.6; horizontal gap= 45.0; vertical offset=  5.7; horizontal offset= -17.5
# HR Mirror : out; Y: 37.8; Pitch:  0.3; Coating: Pt
# Mirror 2: Pitch:  2.3; Height: -6.4; Yaw: -1.6; Bend:  0.8;
# I0 Stanford sensitivity: 20 nA/V Offsets: 20 pA
# It Stanford sensitivity: 100 nA/V Offsets: 1 pA
# Iref Stanford sensitivity: 20 nA/V Offsets: 1 pA
#
# Ascii output file name: 'Andrea_Sn//ascii/262919_PtSn_OCO_H2_Abu_1.dat'
# Nexus output file: '/dls/b18/data/2016/sp10306-9/Andrea_Sn//nexus/262919_PtSn_OCO_H2_Abu_1.nxs'
# XML folder and files:
# /dls/b18/data/2016/sp10306-9/xml/Andrea_Sn/
# QEXAFS_Parameters
# Sample_Parameters
# Detector_Parameters
# Output_Parameters
# The contents of these files are also stored in the nexus file.
#
# Sample name: PtSn_OCO_H2_Abu
# Sample description: default sample description
# Additional comments: default additional comments
# command: qexafs_energy 29000.0 30050.0 2094 263.53 qexafs_counterTimer01
#
#
# qexafs_energy	   time	       I0	       It	     Iref	  lnI0It	 lnItIref
     29000.24	0.14401	2313610.0	1843237.0	3810732.0	0.227286	-0.726298
     29000.73	0.16537	2657748.0	2117873.0	4377840.0	0.227067	-0.726143
     29001.21	0.15296	2461425.0	1961090.0	4054853.0	0.227240	-0.726414
     29001.69	0.080904	1296073.0	1032870.0	2135202.0	0.226998	-0.726220
     29002.18	0.11985	1924558.0	1533824.0	3170890.0	0.226932	-0.726248
     29002.66	0.13269	2125311.0	1693924.0	3501513.0	0.226870	-0.726147
     29003.14	0.12754	2044152.0	1629610.0	3368460.0	0.226642	-0.726115
     29003.63	0.12249	1958615.0	1561045.0	3226347.0	0.226882	-0.725995
     29004.11	0.13286	2139191.0	1705132.0	3525959.0	0.226785	-0.726510
     29004.59	0.12383	1990113.0	1586560.0	3279405.0	0.226623	-0.726094
     29005.08	0.12037	1933346.0	1540731.0	3185333.0	0.226995	-0.726300
     29005.56	0.12617	2022888.0	1612414.0	3333212.0	0.226794	-0.726204
     29006.05	0.12186	1960924.0	1563066.0	3231298.0	0.226767	-0.726235
     29006.53	0.12668	2039719.0	1625853.0	3361086.0	0.226779	-0.726232
     29007.01	0.12005	1934154.0	1541872.0	3187431.0	0.226673	-0.726218
     29007.50	0.13541	2180083.0	1737669.0	3592612.0	0.226818	-0.726335
     29007.98	0.12146	1960837.0	1562868.0	3231347.0	0.226849	-0.726376
     29008.46	0.12426	2003801.0	1597498.0	3302540.0	0.226607	-0.726253
     29008.95	0.10514	1695658.0	1352014.0	2795407.0	0.226476	-0.726382
     29009.43	0.12904	2082245.0	1659969.0	3432091.0	0.226648	-0.726371
     29009.92	0.11542	1859041.0	1482456.0	3064933.0	0.226361	-0.726326
     29010.40	0.11366	1836669.0	1464604.0	3028583.0	0.226369	-0.726510
     29010.88	0.12320	1985969.0	1583344.0	3273585.0	0.226568	-0.726347
     29011.37	0.13232	2137277.0	1703913.0	3522655.0	0.226605	-0.726288
     29011.85	0.14727	2376049.0	1894965.0	3917170.0	0.226239	-0.726169
     29012.34	0.11945	1920811.0	1531495.0	3166698.0	0.226503	-0.726445
     29012.82	0.11399	1845649.0	1472157.0	3043418.0	0.226102	-0.726253
     29013.30	0.13794	2225505.0	1774926.0	3669626.0	0.226225	-0.726331
     29013.79	0.13636	2207359.0	1760354.0	3639777.0	0.226282	-0.726407
     29014.27	0.12275	1986435.0	1584365.0	3276049.0	0.226158	-0.726454
     29014.76	0.12555	2030186.0	1619137.0	3347362.0	0.226234	-0.726279
     29015.24	0.12093	1956083.0	1560462.0	3225669.0	0.225962	-0.726158
     29015.72	0.12590	2033455.0	1621512.0	3352870.0	0.226377	-0.726458
     29016.21	0.12331	1991791.0	1589058.0	3285522.0	0.225893	-0.726384
     29016.69	0.11771	1904658.0	1519184.0	3140339.0	0.226129	-0.726157
     29017.18	0.13081	2117800.0	1689346.0	3492321.0	0.226036	-0.726225
     29017.66	0.12535	2029726.0	1619039.0	3347748.0	0.226068	-0.726455
     29018.14	0.12853	2078138.0	1657714.0	3427278.0	0.226033	-0.726327
     29018.63	0.12536	2026343.0	1616995.0	3343205.0	0.225663	-0.726360
     29019.11	0.13775	2227461.0	1777038.0	3674101.0	0.225914	-0.726361
     29019.60	0.12812	2070393.0	1651627.0	3414317.0	0.225978	-0.726217
     29020.08	0.13290	2145306.0	1711679.0	3538988.0	0.225807	-0.726366
     29020.57	0.12139	1955669.0	1560514.0	3226318.0	0.225717	-0.726326
     29021.05	0.13179	2125724.0	1696572.0	3506700.0	0.225503	-0.726066
     29021.53	0.12610	2033930.0	1623398.0	3355586.0	0.225448	-0.726105
     29022.02	0.11960	1933776.0	1543178.0	3190118.0	0.225631	-0.726214
     29022.50	0.13259	2140764.0	1708253.0	3531274.0	0.225692	-0.726188
     29022.99	0.13740	2221789.0	1773046.0	3666235.0	0.225614	-0.726466
     29023.47	0.14838	2398783.0	1914315.0	3957338.0	0.225602	-0.726212
     29023.96	0.10401	1681997.0	1342358.0	2775126.0	0.225554	-0.726268
     29024.44	0.11687	1892782.0	1510345.0	3122856.0	0.225710	-0.726410
     29024.92	0.12533	2025561.0	1616584.0	3342740.0	0.225531	-0.726476
     29025.41	0.11641	1882634.0	1502462.0	3106569.0	0.225567	-0.726414
     29025.89	0.12412	2008002.0	1602972.0	3313565.0	0.225281	-0.726165
     29026.38	0.12084	1955579.0	1561054.0	3227705.0	0.225325	-0.726410
     29026.86	0.12241	1981366.0	1581091.0	3269104.0	0.225671	-0.726401
     29027.35	0.12582	2034691.0	1624070.0	3357501.0	0.225409	-0.726262
     29027.83	0.10504	1696789.0	1354617.0	2801106.0	0.225219	-0.726496
     29028.32	0.10776	1742027.0	1390509.0	2875257.0	0.225380	-0.726472
     29028.80	0.10867	1759314.0	1404239.0	2903598.0	0.225428	-0.726455
     29029.28	0.11840	1916270.0	1529620.0	3163736.0	0.225361	-0.726734
     29029.77	0.12667	2049570.0	1636325.0	3383585.0	0.225177	-0.726483
     29030.25	0.13302	2150956.0	1717107.0	3550759.0	0.225271	-0.726520
     29030.74	0.13130	2123621.0	1695249.0	3505533.0	0.225293	-0.726513
     29031.22	0.12808	2071021.0	1653691.0	3419513.0	0.225032	-0.726488
     29031.71	0.12813	2070017.0	1652864.0	3417894.0	0.225047	-0.726515
     29032.19	0.10147	1642689.0	1311329.0	2711479.0	0.225293	-0.726453
     29032.68	0.13669	2207286.0	1762261.0	3643016.0	0.225166	-0.726214
     29033.16	0.12966	2095416.0	1673579.0	3459437.0	0.224788	-0.726141
     29033.65	0.15233	2462962.0	1966500.0	4066747.0	0.225109	-0.726588
     29034.13	0.12546	2029215.0	1620404.0	3350836.0	0.224974	-0.726534
     29034.62	0.15508	2502034.0	1997901.0	4131100.0	0.225007	-0.726447
     29035.10	0.11141	1798569.0	1436270.0	2970478.0	0.224942	-0.726673
     29035.58	0.10119	1634367.0	1305269.0	2699908.0	0.224846	-0.726809
     29036.07	0.13809	2227840.0	1779192.0	3678986.0	0.224873	-0.726478
     29036.55	0.12446	2010206.0	1605204.0	3319644.0	0.224986	-0.726607
     29037.04	0.13849	2239370.0	1788747.0	3697705.0	0.224679	-0.726197
     29037.52	0.14086	2275003.0	1817239.0	3757576.0	0.224663	-0.726456
     29038.01	0.12664	2044047.0	1632397.0	3375882.0	0.224882	-0.726607
     29038.49	0.14410	2327156.0	1858403.0	3842960.0	0.224929	-0.726525
     29038.98	0.12648	2042690.0	1631354.0	3373878.0	0.224857	-0.726652
     29039.46	0.12428	2006809.0	1603093.0	3314605.0	0.224611	-0.726404
     29039.95	0.13073	2112335.0	1687486.0	3489477.0	0.224554	-0.726512
     29040.43	0.12990	2096175.0	1674386.0	3461719.0	0.224668	-0.726319
     29040.92	0.13097	2100109.0	1678033.0	3469554.0	0.224367	-0.726404
     29041.40	0.12167	1965777.0	1570511.0	3247390.0	0.224487	-0.726451
     29041.89	0.12620	2035784.0	1626620.0	3363535.0	0.224377	-0.726488
     29042.37	0.12704	2043239.0	1632455.0	3375900.0	0.224451	-0.726577
     29042.86	0.12553	2024534.0	1617423.0	3344451.0	0.224505	-0.726468
     29043.34	0.11625	1871527.0	1495306.0	3091981.0	0.224424	-0.726481
     29043.83	0.12959	2082394.0	1664089.0	3441371.0	0.224240	-0.726592
     29044.31	0.12735	2057594.0	1643844.0	3399455.0	0.224500	-0.726578
     29044.80	0.12599	2033062.0	1624518.0	3358844.0	0.224332	-0.726386
     29045.28	0.12447	2008842.0	1605421.0	3319300.0	0.224172	-0.726368
     29045.77	0.12190	1968372.0	1572464.0	3251493.0	0.224563	-0.726470
     29046.25	0.11149	1797778.0	1436306.0	2969618.0	0.224477	-0.726359
     29046.74	0.13065	2104680.0	1681511.0	3476750.0	0.224471	-0.726405
     29047.22	0.11737	1894066.0	1513558.0	3129349.0	0.224263	-0.726362
     29047.71	0.11470	1847863.0	1476443.0	3052840.0	0.224394	-0.726436
     29048.19	0.11557	1862171.0	1488307.0	3077980.0	0.224104	-0.726634
     29048.68	0.12892	2077366.0	1660255.0	3431717.0	0.224130	-0.726090
     29049.16	0.12516	2011224.0	1607551.0	3323384.0	0.224032	-0.726272
     29049.65	0.12496	2013963.0	1609258.0	3327224.0	0.224331	-0.726365
     29050.13	0.13425	2163972.0	1729499.0	3575617.0	0.224114	-0.726306
     29050.62	0.12804	2056436.0	1643608.0	3397860.0	0.224081	-0.726252
     29051.10	0.12510	2015590.0	1611179.0	3331765.0	0.223946	-0.726536
     29051.59	0.13331	2148454.0	1717449.0	3550615.0	0.223908	-0.726281
     29052.08	0.12639	2033257.0	1625146.0	3359883.0	0.224041	-0.726308
     29052.56	0.12617	2033458.0	1625584.0	3360698.0	0.223871	-0.726282
     29053.05	0.11831	1905061.0	1522867.0	3148456.0	0.223919	-0.726317
     29053.53	0.13028	2094971.0	1674548.0	3462318.0	0.223996	-0.726395
     29054.02	0.12046	1938402.0	1549686.0	3203779.0	0.223812	-0.726279
     29054.50	0.13015	2090546.0	1670872.0	3454110.0	0.224080	-0.726219
     29054.99	0.10955	1764923.0	1410990.0	2916838.0	0.223815	-0.726209
     29055.47	0.13636	2196115.0	1755892.0	3629686.0	0.223713	-0.726169
     29055.96	0.13878	2235406.0	1787052.0	3694093.0	0.223856	-0.726168
     29056.44	0.12924	2079516.0	1662588.0	3437167.0	0.223760	-0.726272
     29056.93	0.13113	2111308.0	1688151.0	3489685.0	0.223674	-0.726178
     29057.41	0.12313	1981907.0	1585000.0	3275825.0	0.223475	-0.725985
     29057.90	0.12882	2071436.0	1656119.0	3423658.0	0.223765	-0.726233
     29058.39	0.12534	2016588.0	1612561.0	3333593.0	0.223583	-0.726227
     29058.87	0.13016	2090031.0	1671283.0	3454849.0	0.223587	-0.726187
     29059.36	0.12943	2081182.0	1664106.0	3440479.0	0.223648	-0.726323
     29059.84	0.12719	2046930.0	1637199.0	3384131.0	0.223354	-0.726110
     29060.33	0.13789	2218074.0	1774094.0	3666693.0	0.223349	-0.726000
     29060.81	0.12855	2066765.0	1653345.0	3418038.0	0.223184	-0.726266
     29061.30	0.11072	1774637.0	1419452.0	2934276.0	0.223325	-0.726190
     29061.78	0.12367	1988562.0	1590982.0	3288791.0	0.223060	-0.726169
     29062.27	0.12508	2008391.0	1606344.0	3320960.0	0.223373	-0.726293
     29062.76	0.12754	2050624.0	1639965.0	3389070.0	0.223469	-0.725881
     29063.24	0.12496	2009293.0	1606955.0	3321516.0	0.223442	-0.726080
     29063.73	0.13677	2200279.0	1760225.0	3638490.0	0.223143	-0.726127
     29064.21	0.14082	2262459.0	1810248.0	3741461.0	0.222988	-0.726012
     29064.70	0.10473	1683843.0	1347008.0	2784037.0	0.223193	-0.726016
     29065.18	0.083301	1335486.0	1068486.0	2208127.0	0.223053	-0.725902
     29065.67	0.10842	1739309.0	1391287.0	2875561.0	0.223259	-0.726019
     29066.16	0.11706	1878705.0	1503302.0	3107119.0	0.222919	-0.726032
     29066.64	0.11448	1839668.0	1472174.0	3042117.0	0.222845	-0.725813
     29067.13	0.13040	2092922.0	1674571.0	3460471.0	0.223004	-0.725848
     29067.61	0.12285	1969068.0	1575663.0	3256488.0	0.222884	-0.725973
     29068.10	0.15269	2454203.0	1963511.0	4057558.0	0.223068	-0.725847
     29068.59	0.11381	1827099.0	1462051.0	3020989.0	0.222889	-0.725744
     29069.07	0.11920	1913188.0	1530743.0	3163479.0	0.223018	-0.725919
     29069.56	0.12136	1950172.0	1560710.0	3224421.0	0.222777	-0.725613
     29070.04	0.12825	2061187.0	1649018.0	3407609.0	0.223102	-0.725831
     29070.53	0.13088	2103949.0	1683680.0	3478507.0	0.222834	-0.725621
     29071.01	0.13790	2217641.0	1774608.0	3667009.0	0.222864	-0.725797
     29071.50	0.13028	2093840.0	1675484.0	3461922.0	0.222898	-0.725722
     29071.99	0.18216	2922849.0	2338937.0	4832560.0	0.222862	-0.725680
     29072.47	0.098933	1589906.0	1272722.0	2628885.0	0.222517	-0.725402
     29072.96	0.10239	1644056.0	1315954.0	2718578.0	0.222604	-0.725547
     29073.44	0.11833	1897301.0	1518654.0	3137278.0	0.222608	-0.725531
     29073.93	0.14050	2254158.0	1804093.0	3726682.0	0.222719	-0.725460
     29074.42	0.12239	1965915.0	1573924.0	3250884.0	0.222386	-0.725355
     29074.90	0.14216	2279132.0	1824521.0	3769120.0	0.222477	-0.725524
     29075.39	0.12914	2073053.0	1659390.0	3426638.0	0.222572	-0.725130
     29075.87	0.16654	2669569.0	2136949.0	4413248.0	0.222538	-0.725232
     29076.36	0.11554	1855408.0	1485356.0	3068001.0	0.222450	-0.725372
     29076.85	0.11107	1783043.0	1427589.0	2948216.0	0.222334	-0.725213
     29077.33	0.13343	2142081.0	1714801.0	3540315.0	0.222481	-0.724919
     29077.82	0.13000	2087962.0	1671571.0	3452086.0	0.222425	-0.725215
     29078.31	0.13690	2196206.0	1758521.0	3630548.0	0.222258	-0.724910
     29078.79	0.12270	1969270.0	1576596.0	3255283.0	0.222395	-0.725011
     29079.28	0.12917	2069978.0	1657101.0	3421895.0	0.222468	-0.725125
     29079.76	0.13892	2225460.0	1782204.0	3678702.0	0.222113	-0.724709
     29080.25	0.11188	1795041.0	1437380.0	2967422.0	0.222206	-0.724872
     29080.74	0.11496	1846072.0	1478272.0	3051577.0	0.222186	-0.724785
     29081.22	0.12698	2036328.0	1630732.0	3365675.0	0.222119	-0.724600
     29081.71	0.13149	2108084.0	1688292.0	3484784.0	0.222062	-0.724689
     29082.20	0.12491	1999296.0	1601077.0	3305137.0	0.222119	-0.724801
     29082.68	0.12411	1987329.0	1591254.0	3284486.0	0.222269	-0.724688
     29083.17	0.12752	2044409.0	1637461.0	3378660.0	0.221962	-0.724332
     29083.65	0.11988	1922174.0	1539724.0	3176956.0	0.221854	-0.724320
     29084.14	0.11846	1899636.0	1521463.0	3138963.0	0.221990	-0.724220
     29084.63	0.12276	1967849.0	1576264.0	3252924.0	0.221884	-0.724497
     29085.11	0.10936	1752538.0	1403590.0	2895511.0	0.222032	-0.724128
     29085.60	0.12285	1966972.0	1575504.0	3250191.0	0.221920	-0.724139
     29086.09	0.12529	2000999.0	1602696.0	3306336.0	0.221959	-0.724153
     29086.57	0.12034	1927434.0	1544194.0	3185186.0	0.221687	-0.724009
     29087.06	0.12213	1958480.0	1568677.0	3235850.0	0.221936	-0.724059
     29087.55	0.12027	1927281.0	1543704.0	3184085.0	0.221925	-0.723980
     29088.03	0.11823	1895201.0	1518502.0	3131645.0	0.221601	-0.723834
     29088.52	0.14446	2316089.0	1855571.0	3827131.0	0.221688	-0.723923
     29089.01	0.11964	1918136.0	1536543.0	3168643.0	0.221819	-0.723768
     29089.49	0.14414	2310267.0	1850000.0	3815557.0	0.222177	-0.723901
     29089.98	0.11979	1918906.0	1537302.0	3170221.0	0.221726	-0.723772
     29090.47	0.13601	2170365.0	1738789.0	3585237.0	0.221706	-0.723636
     29090.95	0.11963	1910991.0	1531100.0	3156753.0	0.221636	-0.723558
     29091.44	0.12926	2069776.0	1658308.0	3418723.0	0.221643	-0.723469
     29091.93	0.11715	1875194.0	1502949.0	3097865.0	0.221283	-0.723284
     29092.41	0.12235	1958846.0	1569931.0	3236101.0	0.221324	-0.723338
     29092.90	0.13057	2090873.0	1675105.0	3452481.0	0.221706	-0.723217
     29093.39	0.12942	2068758.0	1657485.0	3415843.0	0.221647	-0.723123
     29093.87	0.12012	1924324.0	1542025.0	3177000.0	0.221478	-0.722841
     29094.36	0.14185	2269638.0	1818821.0	3747576.0	0.221432	-0.722921
     29094.85	0.12179	1948463.0	1561284.0	3216325.0	0.221532	-0.722731
     29095.33	0.12434	1984455.0	1590385.0	3276345.0	0.221368	-0.722752
     29095.82	0.13299	2116826.0	1696747.0	3494095.0	0.221205	-0.722362
     29096.31	0.12522	2004814.0	1606517.0	3309396.0	0.221483	-0.722697
     29096.79	0.13383	2136049.0	1712061.0	3526039.0	0.221260	-0.722477
     29097.28	0.13066	2083518.0	1669562.0	3437921.0	0.221496	-0.722306
     29097.77	0.12322	1967396.0	1576502.0	3245610.0	0.221502	-0.722095
     29098.25	0.14059	2248911.0	1802289.0	3711084.0	0.221389	-0.722266
     29098.74	0.11568	1850675.0	1483316.0	3053574.0	0.221270	-0.722033
     29099.23	0.12302	1966378.0	1576285.0	3244798.0	0.221122	-0.721982
     29099.71	0.11778	1881795.0	1507995.0	3103891.0	0.221445	-0.721876
     29100.20	0.12108	1933117.0	1549534.0	3188535.0	0.221179	-0.721607
     29100.69	0.12998	2077108.0	1664841.0	3425446.0	0.221247	-0.721502
     29101.17	0.12374	1973171.0	1581423.0	3253727.0	0.221317	-0.721476
     29101.66	0.12366	1976609.0	1584235.0	3259797.0	0.221281	-0.721563
     29102.15	0.11525	1837394.0	1472526.0	3029347.0	0.221369	-0.721368
     29102.64	0.13098	2087372.0	1672893.0	3441075.0	0.221351	-0.721229
     29103.12	0.10638	1695177.0	1359104.0	2795393.0	0.220962	-0.721147
     29103.61	0.11241	1790258.0	1435417.0	2951373.0	0.220904	-0.720815
     29104.10	0.11702	1861598.0	1492718.0	3068510.0	0.220837	-0.720593
     29104.58	0.12469	1978196.0	1585982.0	3260623.0	0.220982	-0.720715
     29105.07	0.11049	1755452.0	1407254.0	2892793.0	0.221086	-0.720582
     29105.56	0.11387	1811138.0	1452289.0	2984072.0	0.220814	-0.720148
     29106.04	0.13194	2098965.0	1682497.0	3457424.0	0.221165	-0.720245
     29106.53	0.11546	1837938.0	1473715.0	3028075.0	0.220858	-0.720141
     29107.02	0.12462	1983431.0	1590253.0	3267149.0	0.220935	-0.720025
     29107.51	0.12215	1944596.0	1559327.0	3203112.0	0.220800	-0.719869
     29107.99	0.14322	2279326.0	1828052.0	3753718.0	0.220629	-0.719496
     29108.48	0.13056	2080975.0	1668766.0	3426309.0	0.220752	-0.719399
     29108.97	0.12846	2049490.0	1643666.0	3374916.0	0.220662	-0.719441
     29109.46	0.13675	2182215.0	1749996.0	3592133.0	0.220727	-0.719133
     29109.94	0.12896	2058958.0	1650958.0	3388800.0	0.220844	-0.719120
     29110.43	0.12833	2048556.0	1642553.0	3370858.0	0.220883	-0.718916
     29110.92	0.11476	1832975.0	1470148.0	3015427.0	0.220577	-0.718378
     29111.40	0.12742	2029096.0	1627222.0	3338267.0	0.220716	-0.718578
     29111.89	0.13068	2085360.0	1672559.0	3429843.0	0.220587	-0.718160
     29112.38	0.13577	2165696.0	1736902.0	3561391.0	0.220639	-0.718048
     29112.87	0.13067	2081502.0	1669452.0	3422564.0	0.220594	-0.717895
     29113.35	0.13908	2218758.0	1779789.0	3648380.0	0.220453	-0.717788
     29113.84	0.12192	1943082.0	1558387.0	3193484.0	0.220624	-0.717461
     29114.33	0.14018	2233453.0	1791627.0	3671234.0	0.220425	-0.717404
     29114.82	0.13248	2103511.0	1687316.0	3456088.0	0.220469	-0.716998
     29115.30	0.13437	2144566.0	1720029.0	3522830.0	0.220596	-0.716923
     29115.79	0.12088	1921749.0	1541775.0	3156873.0	0.220301	-0.716648
     29116.28	0.13090	2080746.0	1668994.0	3416700.0	0.220505	-0.716454
     29116.77	0.13236	2108463.0	1691356.0	3461716.0	0.220429	-0.716234
     29117.25	0.13501	2151352.0	1725746.0	3531255.0	0.220437	-0.715994
     29117.74	0.12587	2003937.0	1607758.0	3288652.0	0.220273	-0.715637
     29118.23	0.12073	1924120.0	1543010.0	3155661.0	0.220734	-0.715463
     29118.72	0.12182	1942832.0	1558633.0	3187206.0	0.220338	-0.715336
     29119.20	0.12132	1930368.0	1548282.0	3164478.0	0.220565	-0.714842
     29119.69	0.12694	2021333.0	1621495.0	3313538.0	0.220409	-0.714668
     29120.18	0.12031	1913519.0	1535223.0	3136713.0	0.220268	-0.714500
     29120.67	0.12162	1935633.0	1552807.0	3171977.0	0.220370	-0.714291
     29121.15	0.13307	2118819.0	1700024.0	3471200.0	0.220216	-0.713858
     29121.64	0.12063	1916689.0	1537699.0	3139186.0	0.220312	-0.713676
     29122.13	0.11496	1819242.0	1459538.0	2978244.0	0.220300	-0.713214
     29122.62	0.12998	2071454.0	1661413.0	3390149.0	0.220582	-0.713205
     29123.10	0.11064	1762588.0	1413943.0	2884647.0	0.220401	-0.713020
     29123.59	0.12250	1944979.0	1560505.0	3182168.0	0.220242	-0.712553
     29124.08	0.12609	2006915.0	1610434.0	3282545.0	0.220095	-0.712115
     29124.57	0.12743	2028131.0	1627377.0	3316511.0	0.220145	-0.711944
     29125.06	0.12528	1995041.0	1600726.0	3261478.0	0.220207	-0.711723
     29125.54	0.11764	1872681.0	1502552.0	3059988.0	0.220206	-0.711246
     29126.03	0.12172	1935375.0	1552908.0	3161708.0	0.220172	-0.710983
     29126.52	0.12118	1918659.0	1539762.0	3134144.0	0.219999	-0.710728
     29127.01	0.13148	2092764.0	1679337.0	3416800.0	0.220087	-0.710305
     29127.49	0.12178	1935727.0	1553365.0	3159264.0	0.220059	-0.709916
     29127.98	0.13740	2182304.0	1751023.0	3560275.0	0.220181	-0.709638
     29128.47	0.12655	2016347.0	1617733.0	3287948.0	0.220262	-0.709238
     29128.96	0.14527	2312487.0	1855431.0	3769392.0	0.220207	-0.708797
     29129.45	0.11734	1860761.0	1493255.0	3033420.0	0.220027	-0.708732
     29129.93	0.12540	1990819.0	1597478.0	3242798.0	0.220120	-0.708010
     29130.42	0.12945	2059108.0	1652290.0	3352777.0	0.220111	-0.707627
     29130.91	0.10778	1712592.0	1374512.0	2788567.0	0.219909	-0.707429
     29131.40	0.12423	1975352.0	1585490.0	3215948.0	0.219853	-0.707229
     29131.89	0.12440	1974561.0	1584231.0	3211284.0	0.220247	-0.706572
     29132.37	0.13260	2097927.0	1683575.0	3411246.0	0.220030	-0.706158
     29132.86	0.11739	1866263.0	1497449.0	3032932.0	0.220175	-0.705767
     29133.35	0.13281	2108673.0	1691967.0	3425560.0	0.220167	-0.705373
     29133.84	0.13614	2161730.0	1734462.0	3509530.0	0.220212	-0.704785
     29134.33	0.11790	1874993.0	1504731.0	3043513.0	0.219991	-0.704398
     29134.81	0.12999	2067456.0	1658963.0	3354421.0	0.220126	-0.704086
     29135.30	0.13112	2084018.0	1672425.0	3379880.0	0.220023	-0.703566
     29135.79	0.13032	2070362.0	1661312.0	3355811.0	0.220116	-0.703086
     29136.28	0.13076	2076874.0	1666871.0	3364964.0	0.219916	-0.702469
     29136.77	0.12598	2002359.0	1607149.0	3243092.0	0.219864	-0.702065
     29137.25	0.13458	2132568.0	1711648.0	3451821.0	0.219870	-0.701445
     29137.74	0.12511	1980748.0	1589823.0	3203301.0	0.219852	-0.700559
     29138.23	0.11808	1876008.0	1505531.0	3032815.0	0.220000	-0.700346
     29138.72	0.13033	2064687.0	1656896.0	3335671.0	0.220033	-0.699728
     29139.21	0.12148	1930908.0	1549630.0	3118625.0	0.219974	-0.699376
     29139.70	0.12633	2007349.0	1610604.0	3238897.0	0.220206	-0.698624
     29140.18	0.12200	1939224.0	1556287.0	3127779.0	0.219985	-0.698020
     29140.67	0.12316	1954812.0	1568669.0	3150487.0	0.220067	-0.697330
     29141.16	0.12824	2037033.0	1634537.0	3280946.0	0.220135	-0.696772
     29141.65	0.11990	1904312.0	1528178.0	3066072.0	0.220045	-0.696321
     29142.14	0.11896	1887802.0	1515098.0	3037944.0	0.219933	-0.695701
     29142.63	0.12119	1920820.0	1542031.0	3088919.0	0.219652	-0.694721
     29143.11	0.12299	1954553.0	1568128.0	3139711.0	0.220279	-0.694248
     29143.60	0.11058	1756553.0	1409442.0	2819977.0	0.220159	-0.693535
     29144.09	0.11569	1833634.0	1471271.0	2940850.0	0.220173	-0.692572
     29144.58	0.11256	1787449.0	1434434.0	2865690.0	0.220019	-0.692039
     29145.07	0.11911	1885960.0	1513027.0	3019915.0	0.220325	-0.691116
     29145.56	0.12612	1996731.0	1602471.0	3196502.0	0.219965	-0.690510
     29146.04	0.12549	1991643.0	1598025.0	3184384.0	0.220191	-0.689490
     29146.53	0.12524	1987717.0	1594455.0	3174741.0	0.220455	-0.688694
     29147.02	0.10887	1724636.0	1383934.0	2753469.0	0.220086	-0.687931
     29147.51	0.13105	2078287.0	1667144.0	3313712.0	0.220432	-0.686957
     29148.00	0.12861	2039744.0	1636804.0	3250660.0	0.220079	-0.686112
     29148.49	0.13053	2071178.0	1661648.0	3296853.0	0.220308	-0.685158
     29148.98	0.12543	1988073.0	1595215.0	3162132.0	0.220157	-0.684238
     29149.46	0.15386	2428332.0	1948471.0	3858120.0	0.220160	-0.683135
     29149.95	0.13986	2206452.0	1770100.0	3502079.0	0.220350	-0.682321
     29150.44	0.13192	2093940.0	1679686.0	3319352.0	0.220441	-0.681163
     29150.93	0.082612	1304933.0	1046659.0	2066061.0	0.220549	-0.680041
     29151.42	0.13303	2109191.0	1691736.0	3336381.0	0.220549	-0.679131
     29151.91	0.13059	2071776.0	1661584.0	3271817.0	0.220635	-0.677574
     29152.40	0.12506	1982523.0	1590094.0	3128996.0	0.220577	-0.676919
     29152.88	0.14907	2360161.0	1893546.0	3720484.0	0.220279	-0.675403
     29153.37	0.12317	1949423.0	1563636.0	3068446.0	0.220520	-0.674157
     29153.86	0.13342	2113209.0	1694649.0	3321512.0	0.220732	-0.672944
     29154.35	0.17554	2782933.0	2232167.0	4368842.0	0.220533	-0.671525
     29154.84	0.080979	1282340.0	1028300.0	2009815.0	0.220780	-0.670136
     29155.33	0.13867	2195611.0	1760566.0	3436007.0	0.220825	-0.668675
     29155.82	0.12648	2003670.0	1606781.0	3131146.0	0.220748	-0.667166
     29156.31	0.13232	2093538.0	1678612.0	3265995.0	0.220888	-0.665597
     29156.79	0.13833	2188659.0	1754479.0	3408736.0	0.221117	-0.664170
     29157.28	0.11304	1791421.0	1435952.0	2785077.0	0.221181	-0.662447
     29157.77	0.13170	2085572.0	1671594.0	3236212.0	0.221265	-0.660626
     29158.26	0.12681	2007875.0	1609333.0	3110051.0	0.221257	-0.658819
     29158.75	0.11165	1766637.0	1415694.0	2730892.0	0.221458	-0.657008
     29159.24	0.13971	2208760.0	1770550.0	3409273.0	0.221141	-0.655209
     29159.73	0.11697	1851464.0	1483274.0	2849553.0	0.221725	-0.652910
     29160.22	0.14442	2286609.0	1832471.0	3514415.0	0.221405	-0.651208
     29160.71	0.11407	1796297.0	1439007.0	2753291.0	0.221774	-0.648844
     29161.19	0.13485	2133033.0	1708757.0	3261769.0	0.221779	-0.646503
     29161.68	0.11340	1795836.0	1438639.0	2740543.0	0.221773	-0.644459
     29162.17	0.13061	2069043.0	1657372.0	3148672.0	0.221853	-0.641748
     29162.66	0.11892	1881148.0	1506511.0	2854842.0	0.222086	-0.639220
     29163.15	0.11961	1889421.0	1513067.0	2859784.0	0.222132	-0.636607
     29163.64	0.12749	2017604.0	1615925.0	3045413.0	0.222003	-0.633729
     29164.13	0.12145	1918618.0	1536476.0	2886194.0	0.222114	-0.630447
     29164.62	0.10871	1720451.0	1377177.0	2579517.0	0.222551	-0.627566
     29165.11	0.12749	2017113.0	1614403.0	3013587.0	0.222702	-0.624166
     29165.60	0.11863	1873064.0	1499081.0	2788658.0	0.222723	-0.620708
     29166.09	0.12203	1922596.0	1538762.0	2851130.0	0.222698	-0.616737
     29166.57	0.12194	1927768.0	1542152.0	2847528.0	0.223184	-0.613272
     29167.06	0.13186	2086075.0	1668197.0	3067997.0	0.223541	-0.609282
     29167.55	0.11704	1850056.0	1479669.0	2709059.0	0.223397	-0.604783
     29168.04	0.14222	2249343.0	1798418.0	3277751.0	0.223731	-0.600250
     29168.53	0.12551	1984716.0	1586424.0	2877187.0	0.223993	-0.595331
     29169.02	0.13297	2099791.0	1677842.0	3028206.0	0.224329	-0.590462
     29169.51	0.13661	2161123.0	1727000.0	3098360.0	0.224242	-0.584487
     29170.00	0.10965	1730112.0	1382033.0	2465482.0	0.224631	-0.578832
     29170.49	0.11430	1804973.0	1441274.0	2554675.0	0.225018	-0.572398
     29170.98	0.13545	2141304.0	1709417.0	3011327.0	0.225263	-0.566228
     29171.47	0.12241	1932338.0	1541969.0	2695382.0	0.225670	-0.558480
     29171.96	0.12923	2042990.0	1629809.0	2828983.0	0.225952	-0.551454
     29172.45	0.13230	2089347.0	1665989.0	2868263.0	0.226433	-0.543288
     29172.94	0.12090	1909296.0	1522059.0	2594828.0	0.226671	-0.533456
     29173.42	0.12945	2044593.0	1629282.0	2753561.0	0.227059	-0.524756
     29173.91	0.12727	2010862.0	1601536.0	2676558.0	0.227600	-0.513568
     29174.40	0.12778	2014080.0	1603111.0	2651704.0	0.228216	-0.503256
     29174.89	0.12947	2038603.0	1621360.0	2648408.0	0.228999	-0.490693
     29175.38	0.13660	2150629.0	1709846.0	2754776.0	0.229357	-0.476933
     29175.87	0.12572	1984121.0	1576444.0	2502826.0	0.230004	-0.462249
     29176.36	0.13365	2106909.0	1672397.0	2614365.0	0.230964	-0.446763
     29176.85	0.13517	2132208.0	1691262.0	2596710.0	0.231683	-0.428770
     29177.34	0.12040	1895735.0	1502488.0	2262522.0	0.232484	-0.409358
     29177.83	0.12574	1979243.0	1567323.0	2311962.0	0.233345	-0.388727
     29178.32	0.12233	1926053.0	1523226.0	2192744.0	0.234642	-0.364323
     29178.81	0.11854	1869705.0	1477692.0	2068968.0	0.235299	-0.336569
     29179.30	0.13533	2131168.0	1681264.0	2285581.0	0.237124	-0.307074
     29179.79	0.12011	1892848.0	1490928.0	1959983.0	0.238684	-0.273537
     29180.28	0.12098	1898561.0	1493657.0	1888838.0	0.239869	-0.234734
     29180.77	0.12492	1964780.0	1542374.0	1865657.0	0.242057	-0.190290
     29181.26	0.11449	1796660.0	1407899.0	1628921.0	0.243831	-0.145819
     29181.75	0.10946	1716209.0	1341480.0	1471774.0	0.246344	-0.0926950
     29182.24	0.11945	1881749.0	1467286.0	1515158.0	0.248787	-0.0321053
     29182.73	0.11825	1858633.0	1444653.0	1397818.0	0.251972	0.0329567
     29183.22	0.12177	1917288.0	1485718.0	1334858.0	0.255014	0.107073
     29183.71	0.11535	1812416.0	1399155.0	1165281.0	0.258792	0.182906
     29184.20	0.10867	1708948.0	1314640.0	1011844.0	0.262315	0.261788
     29184.68	0.13770	2167622.0	1660536.0	1180767.0	0.266490	0.340976
     29185.17	0.10158	1599402.0	1220182.0	799210.0	0.270630	0.423132
     29185.66	0.12360	1946731.0	1478453.0	892147.0	0.275155	0.505121
     29186.15	0.13058	2053589.0	1553294.0	870195.0	0.279211	0.579416
     29186.64	0.12984	2040530.0	1536339.0	802274.0	0.283807	0.649707
     29187.13	0.14890	2328759.0	1745347.0	854206.0	0.288382	0.714536
     29187.62	0.12491	1954991.0	1458848.0	674516.0	0.292739	0.771407
     29188.11	0.12151	1904199.0	1415754.0	626249.0	0.296399	0.815669
     29188.60	0.13126	2045145.0	1514762.0	647367.0	0.300210	0.850100
     29189.09	0.12414	1955289.0	1442760.0	600152.0	0.303980	0.877130
     29189.58	0.13044	2038814.0	1499763.0	613368.0	0.307061	0.894097
     29190.07	0.13106	2054277.0	1506525.0	611561.0	0.310118	0.901546
     29190.56	0.12558	1968961.0	1440085.0	584617.0	0.312804	0.901500
     29191.05	0.12997	2043109.0	1490504.0	608771.0	0.315358	0.895427
     29191.54	0.12701	1992103.0	1451470.0	598873.0	0.316614	0.885283
     29192.03	0.13714	2152520.0	1565814.0	656056.0	0.318233	0.869915
     29192.52	0.13303	2092361.0	1519994.0	647450.0	0.319587	0.853420
     29193.01	0.12695	1983718.0	1440566.0	623558.0	0.319937	0.837350
     29193.50	0.13479	2104036.0	1527522.0	673187.0	0.320211	0.819379
     29193.99	0.13342	2088950.0	1516497.0	680385.0	0.320258	0.801500
     29194.48	0.13094	2042709.0	1483699.0	676500.0	0.319739	0.785361
     29194.97	0.13340	2071493.0	1505067.0	697234.0	0.319432	0.769472
     29195.46	0.12890	2014788.0	1465286.0	689342.0	0.318464	0.754068
     29195.95	0.13095	2044797.0	1488718.0	710363.0	0.317383	0.739895
     29196.44	0.12824	2010793.0	1466102.0	708520.0	0.315922	0.727184
     29196.93	0.12639	1974570.0	1441357.0	703971.0	0.314766	0.716603
     29197.42	0.11924	1865691.0	1363764.0	672506.0	0.313383	0.706993
     29197.92	0.13158	2063511.0	1510664.0	751418.0	0.311860	0.698342
     29198.41	0.12198	1902665.0	1394703.0	698530.0	0.310574	0.691459
     29198.90	0.13027	2039283.0	1496580.0	754312.0	0.309416	0.685132
     29199.39	0.12509	1966058.0	1445454.0	732561.0	0.307607	0.679632
     29199.88	0.12542	1953422.0	1437803.0	731132.0	0.306466	0.676278
     29200.37	0.12364	1933784.0	1425324.0	727026.0	0.305080	0.673192
     29200.86	0.12992	2026582.0	1494859.0	764610.0	0.304319	0.670421
     29201.35	0.11806	1847894.0	1365238.0	698877.0	0.302718	0.669609
     29201.84	0.12418	1938560.0	1433117.0	734400.0	0.302094	0.668553
     29202.33	0.11399	1776294.0	1314565.0	673653.0	0.301023	0.668546
     29202.82	0.12816	2004581.0	1484944.0	760069.0	0.300058	0.669723
     29203.31	0.11490	1794001.0	1330079.0	679555.0	0.299210	0.671555
     29203.80	0.12269	1923872.0	1427047.0	728036.0	0.298733	0.673012
     29204.29	0.11732	1839592.0	1365835.0	694425.0	0.297778	0.676437
     29204.78	0.11951	1873695.0	1392038.0	705724.0	0.297144	0.679300
     29205.27	0.12382	1933537.0	1437532.0	726729.0	0.296423	0.682129
     29205.76	0.13861	2174641.0	1617418.0	814378.0	0.296033	0.686162
     29206.25	0.11810	1847452.0	1374604.0	689839.0	0.295642	0.689463
     29206.74	0.12910	2021836.0	1505003.0	752686.0	0.295211	0.692902
     29207.23	0.13881	2161132.0	1609363.0	802642.0	0.294794	0.695685
     29207.72	0.12806	2002668.0	1491755.0	741337.0	0.294527	0.699253
     29208.21	0.12058	1888679.0	1407165.0	697728.0	0.294301	0.701503
     29208.70	0.12686	1974925.0	1472146.0	727981.0	0.293809	0.704202
     29209.19	0.12848	1998247.0	1489486.0	735259.0	0.293839	0.705964
     29209.69	0.12232	1905901.0	1421198.0	700291.0	0.293455	0.707759
     29210.18	0.12132	1892470.0	1411297.0	694567.0	0.293374	0.708976
     29210.67	0.12235	1910674.0	1425241.0	701075.0	0.293115	0.709481
     29211.16	0.12689	1990417.0	1484834.0	730139.0	0.293041	0.709823
     29211.65	0.12042	1873734.0	1397613.0	687108.0	0.293167	0.710030
     29212.14	0.13460	2103474.0	1569484.0	771752.0	0.292843	0.709839
     29212.63	0.13038	2035893.0	1519256.0	747881.0	0.292714	0.708732
     29213.12	0.12919	2006226.0	1496935.0	737765.0	0.292836	0.707550
     29213.61	0.12886	2014762.0	1503762.0	742582.0	0.292531	0.705592
     29214.10	0.13181	2061406.0	1538245.0	761689.0	0.292746	0.702859
     29214.59	0.12647	1971091.0	1470861.0	730118.0	0.292739	0.700397
     29215.08	0.13429	2087798.0	1557702.0	775771.0	0.292898	0.697110
     29215.57	0.12955	2023247.0	1509696.0	755263.0	0.292795	0.692598
     29216.06	0.11792	1838594.0	1371987.0	689053.0	0.292741	0.688697
     29216.56	0.13942	2169933.0	1618968.0	816701.0	0.292907	0.684271
     29217.05	0.12430	1936570.0	1444053.0	732052.0	0.293465	0.679357
     29217.54	0.13533	2102715.0	1568957.0	798900.0	0.292818	0.674931
     29218.03	0.11597	1808478.0	1349479.0	690837.0	0.292767	0.669570
     29218.52	0.12621	1963892.0	1464871.0	753060.0	0.293161	0.665378
     29219.01	0.12717	1980450.0	1477182.0	762737.0	0.293188	0.660978
     29219.50	0.11512	1797535.0	1340369.0	694251.0	0.293471	0.657867
     29219.99	0.14992	2329498.0	1737026.0	902237.0	0.293478	0.655052
     29220.48	0.10582	1654136.0	1233663.0	641756.0	0.293291	0.653535
     29220.97	0.098723	1546976.0	1153250.0	600558.0	0.293718	0.652480
     29221.47	0.12091	1889365.0	1408055.0	733296.0	0.294031	0.652415
     29221.96	0.11519	1795467.0	1338101.0	696629.0	0.294014	0.652754
     29222.45	0.11079	1729362.0	1288903.0	670145.0	0.293961	0.654053
     29222.94	0.11536	1798384.0	1340385.0	694859.0	0.293932	0.657003
     29223.43	0.13347	2079956.0	1550740.0	802026.0	0.293615	0.659346
     29223.92	0.11833	1836694.0	1368870.0	705502.0	0.293982	0.662831
     29224.41	0.11030	1717881.0	1280685.0	657488.0	0.293696	0.666724
     29224.90	0.11587	1805994.0	1345699.0	688504.0	0.294198	0.670148
     29225.39	0.14053	2183320.0	1627310.0	829539.0	0.293918	0.673813
     29225.89	0.11283	1761201.0	1313136.0	666611.0	0.293578	0.677967
     29226.38	0.13692	2133360.0	1590604.0	804167.0	0.293584	0.682062
     29226.87	0.13729	2135167.0	1591552.0	801393.0	0.293835	0.686113
     29227.36	0.13857	2161760.0	1611749.0	807893.0	0.293603	0.690646
     29227.85	0.18242	2848639.0	2123986.0	1060623.0	0.293547	0.694438
     29228.34	0.088492	1377708.0	1027535.0	510974.0	0.293259	0.698599
     29228.83	0.12480	1947673.0	1452449.0	719317.0	0.293384	0.702704
     29229.32	0.10910	1697878.0	1266355.0	625114.0	0.293237	0.705964
     29229.81	0.12641	1971503.0	1470243.0	722678.0	0.293369	0.710219
     29230.31	0.14031	2184115.0	1628978.0	797746.0	0.293258	0.713918
     29230.80	0.12648	1975883.0	1473552.0	718769.0	0.293340	0.717891
     29231.29	0.12426	1936023.0	1444126.0	701509.0	0.293132	0.722026
     29231.78	0.17021	2652293.0	1978000.0	957443.0	0.293338	0.725575
     29232.27	0.10136	1581770.0	1179678.0	568650.0	0.293303	0.729732
     29232.76	0.12752	1983924.0	1479881.0	710640.0	0.293115	0.733551
     29233.25	0.12726	1983755.0	1479643.0	707801.0	0.293191	0.737393
     29233.75	0.13089	2029426.0	1513820.0	721567.0	0.293117	0.740966
     29234.24	0.14109	2201051.0	1640948.0	779893.0	0.293661	0.743873
     29234.73	0.13291	2070405.0	1543759.0	731141.0	0.293524	0.747369
     29235.22	0.17535	2731167.0	2036544.0	961695.0	0.293475	0.750312
     29235.71	0.11848	1846691.0	1376723.0	649102.0	0.293689	0.751871
     29236.20	0.083942	1306730.0	973820.0	458131.0	0.294057	0.754071
     29236.69	0.11514	1787476.0	1332427.0	626030.0	0.293802	0.755359
     29237.19	0.12481	1946678.0	1450791.0	681457.0	0.294015	0.755631
     29237.68	0.12026	1868232.0	1392329.0	654110.0	0.294015	0.755458
     29238.17	0.12823	2000807.0	1490870.0	700202.0	0.294191	0.755746
     29238.66	0.13007	2018890.0	1504300.0	707206.0	0.294220	0.754761
     29239.15	0.13656	2116076.0	1576549.0	742754.0	0.294325	0.752629
     29239.64	0.11827	1811375.0	1349533.0	636130.0	0.294328	0.752111
     29240.14	0.11953	1845931.0	1375037.0	649736.0	0.294503	0.749670
     29240.63	0.11546	1789778.0	1332933.0	631932.0	0.294710	0.746355
     29241.12	0.12144	1891203.0	1408441.0	669973.0	0.294730	0.743001
     29241.61	0.12167	1893253.0	1409713.0	672681.0	0.294910	0.739870
     29242.10	0.11285	1756808.0	1308018.0	626430.0	0.294986	0.736231
     29242.59	0.13300	2038723.0	1518073.0	729720.0	0.294882	0.732536
     29243.09	0.12476	1912355.0	1423545.0	686800.0	0.295185	0.728862
     29243.58	0.11287	1732642.0	1290091.0	625169.0	0.294935	0.724446
     29244.07	0.12735	1967050.0	1464232.0	712367.0	0.295204	0.720493
     29244.56	0.11865	1834778.0	1365611.0	667166.0	0.295322	0.716318
     29245.05	0.13129	2040766.0	1519144.0	745332.0	0.295178	0.712073
     29245.55	0.13380	2085572.0	1552179.0	765072.0	0.295383	0.707445
     29246.04	0.13012	2024362.0	1506433.0	745267.0	0.295510	0.703757
     29246.53	0.12879	2008677.0	1494412.0	742509.0	0.295743	0.699453
     29247.02	0.13657	2120854.0	1577716.0	786320.0	0.295841	0.696370
     29247.51	0.11782	1830824.0	1362109.0	681589.0	0.295732	0.692363
     29248.00	0.12000	1871901.0	1392987.0	699304.0	0.295504	0.689120
     29248.50	0.12900	2007233.0	1492878.0	752116.0	0.296051	0.685571
     29248.99	0.11571	1797977.0	1337294.0	675834.0	0.296014	0.682456
     29249.48	0.13147	2043769.0	1520595.0	770522.0	0.295694	0.679789
     29249.97	0.12299	1914923.0	1424086.0	723692.0	0.296147	0.676920
     29250.46	0.13887	2163423.0	1609075.0	819837.0	0.296032	0.674309
     29250.96	0.12162	1895073.0	1409236.0	719300.0	0.296210	0.672524
     29251.45	0.12257	1907245.0	1418508.0	725415.0	0.296054	0.670617
     29251.94	0.12942	2013616.0	1497727.0	766798.0	0.295983	0.669481
     29252.43	0.12856	2002929.0	1489060.0	763252.0	0.296466	0.668312
     29252.92	0.13516	2107923.0	1567846.0	804444.0	0.296000	0.667307
     29253.42	0.12426	1935430.0	1439113.0	739006.0	0.296303	0.666476
     29253.91	0.13904	2165458.0	1610292.0	826693.0	0.296216	0.666737
     29254.40	0.13175	2052039.0	1525946.0	783714.0	0.296219	0.666326
     29254.89	0.12352	1925179.0	1431779.0	735011.0	0.296101	0.666788
     29255.39	0.12165	1893100.0	1408091.0	722187.0	0.295981	0.667706
     29255.88	0.12117	1887080.0	1403355.0	719421.0	0.296165	0.668174
     29256.37	0.12685	1974076.0	1468047.0	751787.0	0.296167	0.669235
     29256.86	0.12519	1946329.0	1447089.0	740372.0	0.296391	0.670156
     29257.35	0.12968	2014761.0	1498322.0	765207.0	0.296155	0.671955
     29257.85	0.12930	2013052.0	1497107.0	763385.0	0.296117	0.673527
     29258.34	0.15728	2447003.0	1820094.0	926143.0	0.295976	0.675615
     29258.83	0.13778	2139407.0	1591635.0	808648.0	0.295767	0.677153
     29259.32	0.098321	1529840.0	1137762.0	576713.0	0.296100	0.679474
     29259.82	0.11977	1862277.0	1385237.0	700495.0	0.295929	0.681839
     29260.31	0.086401	1340786.0	997542.0	503020.0	0.295717	0.684664
     29260.80	0.10012	1557611.0	1158589.0	582555.0	0.295950	0.687535
     29261.29	0.12496	1938368.0	1442468.0	723351.0	0.295491	0.690216
     29261.79	0.17649	2739336.0	2038731.0	1019282.0	0.295388	0.693229
     29262.28	0.14723	2284541.0	1700772.0	847441.0	0.295083	0.696616
     29262.77	0.093628	1450156.0	1079886.0	536528.0	0.294816	0.699492
     29263.26	0.076311	1186621.0	883477.0	437398.0	0.295000	0.703022
     29263.75	0.11168	1734909.0	1291746.0	636964.0	0.294960	0.707037
     29264.25	0.12005	1867239.0	1390644.0	683775.0	0.294694	0.709893
     29264.74	0.12500	1942029.0	1446244.0	708619.0	0.294763	0.713407
     29265.23	0.14077	2186870.0	1629115.0	795426.0	0.294434	0.716914
     29265.72	0.14343	2227751.0	1659525.0	807605.0	0.294461	0.720214
     29266.22	0.13796	2139925.0	1594240.0	773584.0	0.294374	0.723118
     29266.71	0.12427	1925285.0	1435146.0	694302.0	0.293807	0.726115
     29267.20	0.11193	1738353.0	1295625.0	625056.0	0.293945	0.728907
     29267.70	0.11906	1841974.0	1373277.0	660693.0	0.293638	0.731666
     29268.19	0.11176	1711478.0	1276226.0	612357.0	0.293450	0.734347
     29268.68	0.14474	2213476.0	1650611.0	790195.0	0.293419	0.736621
     29269.17	0.12585	1931883.0	1441190.0	688594.0	0.293026	0.738573
     29269.67	0.13189	2035284.0	1518363.0	724322.0	0.293003	0.740152
     29270.16	0.13288	2049188.0	1528724.0	728599.0	0.293010	0.741065
     29270.65	0.13837	2141562.0	1597507.0	760065.0	0.293091	0.742796
     29271.14	0.13074	2025952.0	1511884.0	718786.0	0.292683	0.743548
     29271.64	0.12879	1996154.0	1489627.0	707787.0	0.292697	0.744138
     29272.13	0.13365	2073147.0	1547300.0	735259.0	0.292556	0.744044
     29272.62	0.11652	1785031.0	1332346.0	633519.0	0.292494	0.743407
     29273.11	0.15092	2317436.0	1730041.0	822775.0	0.292316	0.743218
     29273.61	0.12256	1881353.0	1404819.0	668628.0	0.292083	0.742436
     29274.10	0.13959	2155717.0	1609783.0	766944.0	0.292024	0.741441
     29274.59	0.11839	1833661.0	1369834.0	653394.0	0.291625	0.740265
     29275.09	0.13087	2028712.0	1515182.0	723608.0	0.291866	0.739041
     29275.58	0.12135	1880637.0	1405135.0	672188.0	0.291477	0.737351
     29276.07	0.12563	1943448.0	1451738.0	695637.0	0.291702	0.735689
     29276.56	0.12058	1868451.0	1395716.0	669939.0	0.291702	0.733976
     29277.06	0.13252	2048715.0	1530426.0	735879.0	0.291667	0.732236
     29277.55	0.12646	1959986.0	1464549.0	705592.0	0.291390	0.730265
     29278.04	0.11843	1832255.0	1369319.0	660953.0	0.291234	0.728386
     29278.54	0.12787	1980429.0	1479929.0	715886.0	0.291319	0.726228
     29279.03	0.11242	1743822.0	1303199.0	631915.0	0.291257	0.723822
     29279.52	0.12802	1984669.0	1483280.0	720444.0	0.291196	0.722143
     29280.02	0.12103	1876294.0	1402364.0	682205.0	0.291139	0.720584
     29280.51	0.12463	1931967.0	1444455.0	704434.0	0.290807	0.718093
     29281.00	0.11780	1828965.0	1367306.0	668175.0	0.290908	0.716048
     29281.49	0.11684	1811774.0	1354316.0	662735.0	0.291010	0.714677
     29281.99	0.11891	1838170.0	1373897.0	673675.0	0.291119	0.712659
     29282.48	0.12363	1918062.0	1434094.0	704101.0	0.290782	0.711367
     29282.97	0.12541	1944544.0	1454063.0	715199.0	0.290666	0.709556
     29283.47	0.12852	1995000.0	1491213.0	734619.0	0.291054	0.707993
     29283.96	0.12275	1895495.0	1417025.0	698819.0	0.290920	0.706923
     29284.45	0.13756	2124068.0	1588483.0	784714.0	0.290554	0.705215
     29284.95	0.13871	2142193.0	1601653.0	792159.0	0.290794	0.704029
     29285.44	0.12242	1893123.0	1415434.0	700831.0	0.290792	0.702925
     29285.93	0.12545	1940891.0	1451267.0	719456.0	0.290710	0.701697
     29286.43	0.12813	1980257.0	1480577.0	734555.0	0.290795	0.700922
     29286.92	0.11933	1837154.0	1373599.0	681836.0	0.290783	0.700400
     29287.41	0.12747	1968615.0	1471870.0	731578.0	0.290797	0.699085
     29287.91	0.11923	1839589.0	1375165.0	684155.0	0.290968	0.698145
     29288.40	0.13486	2084076.0	1558377.0	775752.0	0.290681	0.697567
     29288.89	0.13639	2112868.0	1580079.0	786743.0	0.290571	0.697328
     29289.39	0.12210	1886960.0	1411192.0	702809.0	0.290532	0.697105
     29289.88	0.11789	1823647.0	1363792.0	679352.0	0.290569	0.696885
     29290.37	0.13382	2069873.0	1547843.0	771681.0	0.290625	0.696046
     29290.87	0.13076	2020642.0	1510977.0	753503.0	0.290659	0.695779
     29291.36	0.13076	2018261.0	1509368.0	752860.0	0.290545	0.695567
     29291.85	0.13113	2029133.0	1517416.0	756998.0	0.290600	0.695404
     29292.35	0.13390	2071194.0	1548913.0	772441.0	0.290572	0.695753
     29292.84	0.12313	1902564.0	1422601.0	709587.0	0.290716	0.695559
     29293.33	0.12800	1979226.0	1479714.0	738250.0	0.290857	0.695322
     29293.83	0.11851	1835530.0	1372570.0	684761.0	0.290648	0.695370
     29294.32	0.12416	1923385.0	1438221.0	717328.0	0.290680	0.695629
     29294.81	0.12625	1950813.0	1459353.0	727587.0	0.290253	0.696015
     29295.31	0.13518	2090937.0	1563690.0	779309.0	0.290564	0.696396
     29295.80	0.12505	1935565.0	1447652.0	721062.0	0.290456	0.696973
     29296.29	0.12246	1896385.0	1418205.0	706294.0	0.290557	0.697116
     29296.79	0.12254	1895046.0	1417412.0	705452.0	0.290410	0.697749
     29297.28	0.11558	1786804.0	1335933.0	664641.0	0.290799	0.698138
     29297.77	0.11992	1856333.0	1388084.0	690080.0	0.290679	0.698872
     29298.27	0.10367	1604523.0	1199696.0	596207.0	0.290758	0.699236
     29298.76	0.11731	1810251.0	1353909.0	672338.0	0.290470	0.699990
     29299.26	0.12834	1981065.0	1481607.0	735336.0	0.290507	0.700555
     29299.75	0.12040	1847134.0	1381566.0	685041.0	0.290418	0.701494
     29300.24	0.12247	1883789.0	1408855.0	698270.0	0.290508	0.701927
     29300.74	0.11325	1744648.0	1304752.0	646488.0	0.290540	0.702214
     29301.23	0.10744	1633852.0	1222054.0	604659.0	0.290407	0.703624
     29301.72	0.11511	1755330.0	1312542.0	648787.0	0.290691	0.704617
     29302.22	0.13203	2017939.0	1509258.0	745450.0	0.290459	0.705385
     29302.71	0.12949	1981941.0	1482823.0	731623.0	0.290129	0.706438
     29303.21	0.13283	2040790.0	1525771.0	752529.0	0.290837	0.706816
     29303.70	0.14117	2167805.0	1621169.0	798344.0	0.290568	0.708363
     29304.19	0.13827	2129176.0	1592597.0	783826.0	0.290369	0.708934
     29304.69	0.10123	1558249.0	1165724.0	573110.0	0.290220	0.710020
     29305.18	0.13972	2149715.0	1607511.0	789692.0	0.290648	0.710799
     29305.67	0.11359	1745893.0	1305723.0	640853.0	0.290509	0.711712
     29306.17	0.13449	2068030.0	1546453.0	758709.0	0.290633	0.712101
     29306.66	0.14315	2203520.0	1647661.0	807345.0	0.290699	0.713361
     29307.16	0.13807	2123028.0	1587634.0	777569.0	0.290599	0.713828
     29307.65	0.18912	2904961.0	2172502.0	1063216.0	0.290540	0.714581
     29308.14	0.094920	1459235.0	1091718.0	533714.0	0.290160	0.715648
     29308.64	0.092952	1428156.0	1067892.0	522176.0	0.290697	0.715437
     29309.13	0.13246	2034369.0	1521417.0	743197.0	0.290544	0.716436
     29309.63	0.13181	2023763.0	1513723.0	738993.0	0.290386	0.717039
     29310.12	0.13564	2084986.0	1559240.0	760796.0	0.290564	0.717589
     29310.61	0.13653	2095777.0	1567135.0	764611.0	0.290675	0.717637
     29311.11	0.13398	2055399.0	1537249.0	749633.0	0.290476	0.718166
     29311.60	0.15225	2338396.0	1748613.0	852517.0	0.290642	0.718385
     29312.10	0.11562	1781569.0	1332149.0	648952.0	0.290701	0.719190
     29312.59	0.10712	1651435.0	1235364.0	601553.0	0.290279	0.719606
     29313.08	0.13099	2021135.0	1511488.0	735791.0	0.290565	0.719904
     29313.58	0.12820	1975352.0	1477285.0	719549.0	0.290541	0.719337
     29314.07	0.12325	1901297.0	1422251.0	691991.0	0.290295	0.720423
     29314.57	0.12124	1869258.0	1397653.0	680366.0	0.290747	0.719919
     29315.06	0.12931	1988848.0	1487529.0	723521.0	0.290439	0.720742
     29315.56	0.13017	2008152.0	1501635.0	730539.0	0.290660	0.720527
     29316.05	0.12108	1869343.0	1398350.0	679925.0	0.290294	0.721066
     29316.54	0.11802	1814468.0	1356910.0	659941.0	0.290582	0.720815
     29317.04	0.12537	1925126.0	1439799.0	700227.0	0.290488	0.720854
     29317.53	0.12235	1883761.0	1408913.0	685190.0	0.290452	0.720878
     29318.03	0.12217	1878584.0	1405342.0	683112.0	0.290238	0.721377
     29318.52	0.11401	1758939.0	1315231.0	639454.0	0.290698	0.721153
     29319.02	0.12657	1950126.0	1458611.0	709441.0	0.290409	0.720763
     29319.51	0.13080	2013876.0	1506109.0	732771.0	0.290532	0.720452
     29320.00	0.10468	1610344.0	1204024.0	586028.0	0.290779	0.720057
     29320.50	0.12131	1868304.0	1396542.0	679964.0	0.291032	0.719715
     29320.99	0.12272	1886017.0	1410650.0	686623.0	0.290417	0.720020
     29321.49	0.11922	1834312.0	1371949.0	668140.0	0.290437	0.719490
     29321.98	0.13782	2108986.0	1577479.0	767871.0	0.290379	0.719962
     29322.48	0.13828	2117605.0	1583674.0	771533.0	0.290538	0.719123
     29322.97	0.12961	1991020.0	1489118.0	725808.0	0.290463	0.718654
     29323.47	0.12941	1982802.0	1482786.0	722844.0	0.290588	0.718485
     29323.96	0.11870	1821852.0	1362818.0	664372.0	0.290299	0.718468
     29324.45	0.11980	1842885.0	1378118.0	672474.0	0.290613	0.717511
     29324.95	0.13214	2030112.0	1518634.0	740907.0	0.290280	0.717691
     29325.44	0.11642	1777210.0	1329308.0	648922.0	0.290386	0.717101
     29325.94	0.12819	1965200.0	1469401.0	717841.0	0.290739	0.716362
     29326.43	0.12653	1944908.0	1454262.0	710800.0	0.290716	0.715863
     29326.93	0.12648	1942249.0	1452341.0	710226.0	0.290670	0.715349
     29327.42	0.12958	1992326.0	1490204.0	729034.0	0.290390	0.714948
     29327.92	0.11210	1720810.0	1286821.0	629982.0	0.290620	0.714239
     29328.41	0.13497	2071626.0	1549356.0	758723.0	0.290494	0.713958
     29328.91	0.12162	1863622.0	1394130.0	683252.0	0.290251	0.713162
     29329.40	0.13310	2042940.0	1528325.0	749529.0	0.290218	0.712483
     29329.89	0.12900	1969507.0	1473561.0	722958.0	0.290101	0.712086
     29330.39	0.14258	2190593.0	1638674.0	804317.0	0.290285	0.711649
     29330.88	0.12644	1941479.0	1452572.0	713473.0	0.290114	0.710946
     29331.38	0.13661	2100974.0	1571821.0	771837.0	0.290166	0.711217
     29331.87	0.12306	1882739.0	1408577.0	692590.0	0.290148	0.709897
     29332.37	0.12159	1870975.0	1399873.0	688581.0	0.290078	0.709504
     29332.86	0.12238	1882269.0	1407942.0	692991.0	0.290349	0.708867
     29333.36	0.12202	1875640.0	1403506.0	691064.0	0.289977	0.708496
     29333.85	0.13460	2069838.0	1548836.0	763124.0	0.289967	0.707838
     29334.35	0.12051	1850686.0	1385010.0	682470.0	0.289849	0.707744
     29334.84	0.13743	2115012.0	1582604.0	780260.0	0.289989	0.707200
     29335.34	0.11710	1800769.0	1347649.0	664703.0	0.289852	0.706777
     29335.83	0.11132	1711701.0	1281107.0	631751.0	0.289763	0.706984
     29336.33	0.12418	1895216.0	1418613.0	700161.0	0.289653	0.706125
     29336.82	0.11801	1800780.0	1348047.0	665391.0	0.289563	0.706037
     29337.32	0.11617	1778296.0	1331241.0	657424.0	0.289544	0.705538
     29337.81	0.11678	1787571.0	1338352.0	661226.0	0.289419	0.705099
     29338.31	0.11702	1791877.0	1341409.0	662776.0	0.289543	0.705039
     29338.80	0.12222	1875075.0	1404085.0	693982.0	0.289263	0.704695
     29339.30	0.12085	1848711.0	1384212.0	684314.0	0.289358	0.704469
     29339.79	0.10794	1652719.0	1237495.0	611837.0	0.289333	0.704379
     29340.29	0.11011	1686592.0	1263004.0	624773.0	0.289217	0.703860
     29340.78	0.12778	1957277.0	1465526.0	725390.0	0.289340	0.703260
     29341.28	0.11634	1779350.0	1332666.0	659395.0	0.289067	0.703614
     29341.77	0.13697	2102612.0	1574817.0	779390.0	0.289041	0.703383
     29342.27	0.15314	2351180.0	1760826.0	871503.0	0.289134	0.703319
     29342.76	0.14100	2161865.0	1619158.0	801889.0	0.289065	0.702691
     29343.26	0.13156	2012024.0	1507520.0	746607.0	0.288675	0.702682
     29343.75	0.10790	1652519.0	1238175.0	613204.0	0.288662	0.702696
     29344.25	0.11873	1820596.0	1364399.0	675705.0	0.288450	0.702713
     29344.74	0.12693	1945845.0	1457886.0	722251.0	0.288709	0.702370
     29345.24	0.13027	1992535.0	1492599.0	739422.0	0.288889	0.702405
     29345.73	0.12347	1893911.0	1418834.0	702968.0	0.288809	0.702279
     29346.23	0.13353	2033604.0	1524071.0	755060.0	0.288425	0.702343
     29346.72	0.14556	2210557.0	1656936.0	820829.0	0.288274	0.702411
     29347.22	0.13086	1998137.0	1497366.0	741865.0	0.288508	0.702296
     29347.72	0.11528	1759919.0	1319070.0	653816.0	0.288341	0.701856
     29348.21	0.13580	2075806.0	1555697.0	771019.0	0.288426	0.701966
     29348.71	0.13106	2005361.0	1503153.0	744526.0	0.288259	0.702572
     29349.20	0.13381	2035461.0	1525802.0	755820.0	0.288202	0.702472
     29349.70	0.12691	1941786.0	1455689.0	720995.0	0.288129	0.702602
     29350.19	0.13116	2009037.0	1506509.0	746099.0	0.287860	0.702692
     29350.69	0.13932	2129648.0	1596850.0	790669.0	0.287924	0.702909
     29351.18	0.11884	1819335.0	1364223.0	675387.0	0.287886	0.703054
     29351.68	0.12945	1975528.0	1481305.0	733358.0	0.287912	0.703045
     29352.17	0.12846	1963756.0	1472407.0	728955.0	0.287960	0.703042
     29352.67	0.12782	1956024.0	1467016.0	726007.0	0.287683	0.703426
     29353.16	0.12332	1886999.0	1415168.0	700242.0	0.287739	0.703578
     29353.66	0.13030	1994753.0	1496131.0	740183.0	0.287638	0.703740
     29354.16	0.12108	1853179.0	1389868.0	687855.0	0.287694	0.703386
     29354.65	0.12492	1902808.0	1427043.0	705949.0	0.287726	0.703817
     29355.15	0.12617	1934062.0	1450670.0	717708.0	0.287597	0.703718
     29355.64	0.12558	1920531.0	1440978.0	712612.0	0.287280	0.704140
     29356.14	0.12030	1841575.0	1381541.0	682997.0	0.287422	0.704464
     29356.63	0.12218	1871281.0	1403794.0	693774.0	0.287445	0.704788
     29357.13	0.12756	1955130.0	1467225.0	724997.0	0.287084	0.704961
     29357.63	0.12464	1906910.0	1430917.0	706751.0	0.287169	0.705392
     29358.12	0.12267	1879492.0	1410426.0	696634.0	0.287110	0.705387
     29358.62	0.11443	1752192.0	1315321.0	649133.0	0.286787	0.706198
     29359.11	0.12176	1866235.0	1400426.0	691269.0	0.287147	0.706003
     29359.61	0.11931	1828679.0	1372683.0	677211.0	0.286827	0.706540
     29360.10	0.11027	1683741.0	1263806.0	623367.0	0.286890	0.706748
     29360.60	0.13185	2019043.0	1515419.0	747747.0	0.286932	0.706383
     29361.09	0.12593	1925290.0	1444910.0	712775.0	0.287030	0.706637
     29361.59	0.11883	1818124.0	1365066.0	672984.0	0.286602	0.707237
     29362.09	0.12374	1892134.0	1420805.0	700496.0	0.286482	0.707190
     29362.58	0.14280	2184938.0	1640656.0	808495.0	0.286491	0.707677
     29363.08	0.12206	1864056.0	1399673.0	689551.0	0.286516	0.707953
     29363.57	0.12439	1902912.0	1428939.0	704168.0	0.286453	0.707671
     29364.07	0.13767	2104843.0	1580523.0	778577.0	0.286485	0.708043
     29364.57	0.12365	1891364.0	1420770.0	699724.0	0.286099	0.708268
     29365.06	0.12129	1844402.0	1384984.0	682157.0	0.286467	0.708184
     29365.56	0.12860	1966441.0	1477140.0	727592.0	0.286118	0.708123
     29366.05	0.12633	1926737.0	1447382.0	712786.0	0.286071	0.708330
     29366.55	0.12886	1966636.0	1477365.0	727704.0	0.286064	0.708121
     29367.05	0.12762	1951765.0	1466122.0	722090.0	0.286113	0.708226
     29367.54	0.11513	1760960.0	1323108.0	651646.0	0.285876	0.708237
     29368.04	0.11365	1737212.0	1305406.0	643016.0	0.285767	0.708100
     29368.53	0.14334	2191866.0	1646873.0	811101.0	0.285875	0.708241
     29369.03	0.12082	1847230.0	1387737.0	683334.0	0.286013	0.708446
     29369.53	0.13082	2001975.0	1504106.0	741072.0	0.285935	0.707856
     29370.02	0.13430	2053419.0	1542920.0	760221.0	0.285829	0.707823
     29370.52	0.13761	2103896.0	1581000.0	778987.0	0.285733	0.707818
     29371.01	0.12372	1892342.0	1422278.0	700859.0	0.285555	0.707708
     29371.51	0.11707	1786248.0	1342561.0	661495.0	0.285538	0.707832
     29372.01	0.14286	2179843.0	1638073.0	807532.0	0.285732	0.707293
     29372.50	0.11857	1812340.0	1362462.0	671733.0	0.285325	0.707188
     29373.00	0.12973	1982378.0	1490102.0	734515.0	0.285453	0.707389
     29373.49	0.12627	1928595.0	1449596.0	715038.0	0.285507	0.706704
     29373.99	0.12117	1846197.0	1387646.0	684729.0	0.285519	0.706341
     29374.49	0.14152	2159945.0	1623409.0	801453.0	0.285554	0.705857
     29374.98	0.10788	1648067.0	1238583.0	611555.0	0.285635	0.705718
     29375.48	0.12104	1847549.0	1388897.0	685723.0	0.285350	0.705791
     29375.98	0.12301	1878183.0	1411845.0	697363.0	0.285407	0.705347
     29376.47	0.12120	1847783.0	1389149.0	686446.0	0.285295	0.704919
     29376.97	0.11638	1775977.0	1334842.0	659893.0	0.285538	0.704491
     29377.46	0.11699	1785852.0	1342573.0	664135.0	0.285308	0.703858
     29377.96	0.12821	1958439.0	1472058.0	728073.0	0.285486	0.704015
     29378.46	0.11115	1695458.0	1275032.0	630902.0	0.284982	0.703576
     29378.95	0.13818	2109426.0	1586220.0	785421.0	0.285062	0.702889
     29379.45	0.10568	1614201.0	1213573.0	600818.0	0.285271	0.703032
     29379.95	0.10216	1559534.0	1172688.0	580831.0	0.285089	0.702594
     29380.44	0.12095	1846431.0	1388201.0	688192.0	0.285246	0.701696
     29380.94	0.12278	1871650.0	1407316.0	697660.0	0.285136	0.701708
     29381.44	0.12574	1910603.0	1436870.0	713029.0	0.284952	0.700700
     29381.93	0.13801	2107556.0	1584454.0	786674.0	0.285289	0.700181
     29382.43	0.13360	2031678.0	1527535.0	758829.0	0.285207	0.699634
     29382.93	0.12784	1943902.0	1461950.0	726381.0	0.284926	0.699452
     29383.42	0.13411	2044045.0	1537102.0	764259.0	0.285032	0.698747
     29383.92	0.11488	1753500.0	1318534.0	655952.0	0.285093	0.698188
     29384.41	0.12213	1863863.0	1401395.0	697188.0	0.285183	0.698168
     29384.91	0.14163	2162230.0	1626048.0	809534.0	0.284988	0.697449
     29385.41	0.13187	2012036.0	1512510.0	753346.0	0.285377	0.697001
     29385.90	0.13342	2031721.0	1527741.0	761230.0	0.285093	0.696610
     29386.40	0.11778	1793156.0	1348348.0	672443.0	0.285097	0.695718
     29386.90	0.12392	1885623.0	1418012.0	707305.0	0.285002	0.695549
     29387.39	0.13173	2008053.0	1510037.0	753583.0	0.285031	0.695050
     29387.89	0.13627	2072236.0	1558384.0	778237.0	0.284979	0.694374
     29388.39	0.11458	1745615.0	1312734.0	655954.0	0.284995	0.693777
     29388.88	0.13205	2011179.0	1512383.0	755794.0	0.285035	0.693673
     29389.38	0.14491	2204927.0	1658388.0	829430.0	0.284848	0.692863
     29389.88	0.14132	2153464.0	1619908.0	810299.0	0.284708	0.692721
     29390.37	0.13329	2026971.0	1524618.0	763212.0	0.284799	0.691963
     29390.87	0.12770	1939519.0	1458759.0	730541.0	0.284854	0.691556
     29391.37	0.13898	2119201.0	1594118.0	798430.0	0.284719	0.691429
     29391.87	0.12121	1844132.0	1387627.0	695760.0	0.284414	0.690346
     29392.36	0.11818	1799052.0	1353008.0	678374.0	0.284930	0.690387
     29392.86	0.13485	2053156.0	1544914.0	774506.0	0.284410	0.690498
     29393.36	0.12644	1926362.0	1449650.0	727416.0	0.284311	0.689579
     29393.85	0.12985	1977334.0	1487811.0	746954.0	0.284444	0.689058
     29394.35	0.12339	1879551.0	1413644.0	709914.0	0.284862	0.688782
     29394.85	0.12186	1854712.0	1395296.0	700907.0	0.284623	0.688487
     29395.34	0.13013	1977509.0	1487333.0	747474.0	0.284853	0.688040
     29395.84	0.12085	1838733.0	1383646.0	695784.0	0.284355	0.687438
     29396.34	0.12648	1926004.0	1448568.0	728332.0	0.284872	0.687574
     29396.83	0.12860	1953591.0	1469863.0	739415.0	0.284500	0.687065
     29397.33	0.11741	1784132.0	1342775.0	675674.0	0.284194	0.686783
     29397.83	0.12540	1896280.0	1426907.0	718093.0	0.284385	0.686665
     29398.33	0.12476	1900154.0	1429500.0	719494.0	0.284610	0.686532
     29398.82	0.12131	1847732.0	1390517.0	700196.0	0.284283	0.686071
     29399.32	0.11624	1770006.0	1332138.0	670740.0	0.284198	0.686159
     29399.82	0.11627	1767770.0	1330212.0	670193.0	0.284381	0.685528
     29400.31	0.10941	1663867.0	1252184.0	630911.0	0.284255	0.685480
     29400.81	0.13503	2049312.0	1542627.0	777288.0	0.284017	0.685431
     29401.31	0.12515	1896935.0	1427992.0	719514.0	0.283970	0.685449
     29401.80	0.12934	1962224.0	1477008.0	744538.0	0.284060	0.685010
     29402.30	0.12407	1882673.0	1417535.0	714530.0	0.283773	0.685050
     29402.80	0.13015	1977845.0	1488868.0	750817.0	0.283992	0.684609
     29403.30	0.13330	2024913.0	1524124.0	768774.0	0.284107	0.684378
     29403.79	0.10972	1666953.0	1254609.0	632887.0	0.284173	0.684287
     29404.29	0.13510	2052060.0	1544507.0	779023.0	0.284139	0.684419
     29404.79	0.13031	1973464.0	1485603.0	749503.0	0.283970	0.684166
     29405.29	0.12874	1951187.0	1468779.0	741019.0	0.284006	0.684160
     29405.78	0.12080	1834199.0	1380847.0	696732.0	0.283911	0.684052
     29406.28	0.13244	2012837.0	1515244.0	764502.0	0.283969	0.684107
     29406.78	0.12538	1901165.0	1431024.0	722108.0	0.284077	0.683971
     29407.27	0.12222	1855695.0	1397404.0	705061.0	0.283643	0.684087
     29407.77	0.12463	1885158.0	1419451.0	716143.0	0.283741	0.684146
     29408.27	0.11659	1769926.0	1332933.0	672303.0	0.283556	0.684428
     29408.77	0.13475	2030973.0	1529097.0	771441.0	0.283838	0.684172
     29409.26	0.12359	1872336.0	1410131.0	711417.0	0.283504	0.684179
     29409.76	0.13465	2037119.0	1534551.0	773986.0	0.283299	0.684439
     29410.26	0.13748	2085525.0	1570768.0	792237.0	0.283456	0.684459
     29410.76	0.12461	1889740.0	1423326.0	717616.0	0.283443	0.684817
     29411.25	0.13133	1991530.0	1500328.0	756558.0	0.283219	0.684660
     29411.75	0.12415	1877949.0	1414434.0	713320.0	0.283451	0.684555
     29412.25	0.13682	2073089.0	1561230.0	787270.0	0.283566	0.684658
     29412.75	0.12012	1818808.0	1370197.0	690846.0	0.283227	0.684793
     29413.24	0.13005	1973227.0	1486732.0	749400.0	0.283090	0.685063
     29413.74	0.12907	1960292.0	1476666.0	744219.0	0.283307	0.685207
     29414.24	0.12212	1854005.0	1397076.0	704079.0	0.282967	0.685246
     29414.74	0.13993	2116735.0	1594845.0	804041.0	0.283098	0.684882
     29415.23	0.12370	1873552.0	1411762.0	711449.0	0.282998	0.685290
     29415.73	0.11210	1699447.0	1280646.0	645336.0	0.282938	0.685349
     29416.23	0.12541	1901491.0	1432760.0	721899.0	0.283036	0.685473
     29416.73	0.12143	1840178.0	1386828.0	698652.0	0.282843	0.685622
     29417.22	0.11927	1809133.0	1363403.0	686755.0	0.282864	0.685761
     29417.72	0.12041	1825412.0	1375796.0	692740.0	0.282773	0.686133
     29418.22	0.11753	1781649.0	1343095.0	676258.0	0.282563	0.686157
     29418.72	0.10750	1630081.0	1228595.0	618491.0	0.282758	0.686344
     29419.22	0.12296	1861975.0	1403571.0	707127.0	0.282618	0.685565
     29419.71	0.11453	1727576.0	1302363.0	655717.0	0.282539	0.686206
     29420.21	0.11338	1713212.0	1291564.0	650164.0	0.282516	0.686385
     29420.71	0.10535	1592691.0	1200933.0	604415.0	0.282326	0.686593
     29421.21	0.12429	1878680.0	1416335.0	712685.0	0.282497	0.686788
     29421.70	0.13588	2056715.0	1551011.0	780301.0	0.282203	0.686983
     29422.20	0.12116	1834533.0	1383252.0	695587.0	0.282353	0.687436
     29422.70	0.12670	1917265.0	1445946.0	727970.0	0.282136	0.686259
     29423.20	0.14388	2169111.0	1636114.0	823317.0	0.281993	0.686738
     29423.70	0.12486	1890029.0	1424857.0	717167.0	0.282521	0.686518
     29424.19	0.11977	1810611.0	1365243.0	686688.0	0.282332	0.687208
     29424.69	0.12947	1959078.0	1477440.0	743150.0	0.282163	0.687168
     29425.19	0.12980	1962205.0	1480205.0	744451.0	0.281888	0.687289
     29425.69	0.13574	2047698.0	1544407.0	776797.0	0.282076	0.687216
     29426.19	0.12591	1901429.0	1434226.0	721022.0	0.281980	0.687711
     29426.68	0.12875	1939875.0	1463635.0	736452.0	0.281700	0.686834
     29427.18	0.13850	2084346.0	1572778.0	791324.0	0.281612	0.686891
     29427.68	0.12122	1833570.0	1382984.0	695764.0	0.282021	0.686988
     29428.18	0.13471	2035968.0	1535951.0	772371.0	0.281822	0.687440
     29428.68	0.13043	1967071.0	1484341.0	746669.0	0.281575	0.687104
     29429.17	0.12694	1916460.0	1446489.0	727835.0	0.281340	0.686820
     29429.67	0.14006	2119765.0	1599357.0	804449.0	0.281704	0.687199
     29430.17	0.13211	1990302.0	1501895.0	755440.0	0.281559	0.687183
     29430.67	0.13111	1983845.0	1496877.0	753131.0	0.281656	0.686897
     29431.17	0.12614	1908370.0	1440396.0	724713.0	0.281331	0.686898
     29431.66	0.13116	1980623.0	1494820.0	752362.0	0.281406	0.686543
     29432.16	0.13215	1997541.0	1507119.0	758625.0	0.281717	0.686448
     29432.66	0.12641	1911141.0	1442429.0	726076.0	0.281372	0.686429
     29433.16	0.12738	1921948.0	1450657.0	730463.0	0.281323	0.686093
     29433.66	0.12438	1882041.0	1420815.0	715591.0	0.281126	0.685877
     29434.16	0.12359	1871094.0	1412559.0	711698.0	0.281120	0.685505
     29434.65	0.11940	1802761.0	1360521.0	685525.0	0.281452	0.685438
     29435.15	0.11672	1759457.0	1328288.0	669389.0	0.281114	0.685281
     29435.65	0.12874	1945321.0	1468660.0	740262.0	0.281077	0.685102
     29436.15	0.13086	1976236.0	1492262.0	752046.0	0.280901	0.685251
     29436.65	0.12312	1862442.0	1406163.0	708900.0	0.281024	0.684906
     29437.15	0.12913	1945636.0	1469361.0	741116.0	0.280761	0.684426
     29437.64	0.12570	1898529.0	1433820.0	723316.0	0.280737	0.684251
     29438.14	0.12225	1844774.0	1393031.0	703044.0	0.280875	0.683818
     29438.64	0.11464	1731352.0	1307141.0	659566.0	0.281060	0.684016
     29439.14	0.10990	1662237.0	1255377.0	633818.0	0.280728	0.683429
     29439.64	0.12204	1843404.0	1392112.0	703067.0	0.280792	0.683125
     29440.14	0.12427	1876200.0	1417229.0	716020.0	0.280545	0.682751
     29440.63	0.12196	1837441.0	1387252.0	701160.0	0.281049	0.682344
     29441.13	0.12349	1864406.0	1408300.0	711962.0	0.280559	0.682114
     29441.63	0.12348	1861472.0	1405924.0	710896.0	0.280673	0.681924
     29442.13	0.13459	2029092.0	1532296.0	774991.0	0.280821	0.681671
     29442.63	0.12380	1872003.0	1413853.0	715396.0	0.280690	0.681238
     29443.13	0.13305	2009240.0	1517542.0	768284.0	0.280665	0.680688
     29443.63	0.12513	1889188.0	1427288.0	722835.0	0.280371	0.680350
     29444.12	0.12700	1918275.0	1449323.0	733994.0	0.280330	0.680351
     29444.62	0.13451	2023071.0	1527992.0	774367.0	0.280662	0.679664
     29445.12	0.12061	1813509.0	1370140.0	694665.0	0.280351	0.679238
     29445.62	0.12362	1858805.0	1404462.0	712529.0	0.280279	0.678589
     29446.12	0.12480	1880050.0	1420315.0	720466.0	0.280420	0.678736
     29446.62	0.11673	1759765.0	1329142.0	674624.0	0.280647	0.678133
     29447.12	0.13076	1970782.0	1489053.0	756067.0	0.280290	0.677766
     29447.62	0.12436	1872451.0	1414618.0	718668.0	0.280389	0.677215
     29448.11	0.12721	1913106.0	1445662.0	734248.0	0.280161	0.677476
     29448.61	0.13630	2054649.0	1552375.0	788704.0	0.280319	0.677150
     29449.11	0.13427	2025087.0	1530235.0	778020.0	0.280191	0.676424
     29449.61	0.12128	1825060.0	1378893.0	701564.0	0.280332	0.675724
     29450.11	0.13291	2000242.0	1511469.0	769517.0	0.280186	0.675074
     29450.61	0.12664	1912506.0	1445354.0	735856.0	0.280060	0.675075
     29451.11	0.12202	1841315.0	1391477.0	708678.0	0.280114	0.674720
     29451.61	0.13587	2042332.0	1543669.0	786318.0	0.279930	0.674556
     29452.10	0.13046	1966928.0	1486424.0	757681.0	0.280100	0.673866
     29452.60	0.12587	1893672.0	1431380.0	729937.0	0.279879	0.673436
     29453.10	0.12798	1928719.0	1457970.0	743578.0	0.279811	0.673327
     29453.60	0.12465	1881424.0	1421998.0	725658.0	0.279966	0.672739
     29454.10	0.13637	2054229.0	1552580.0	792400.0	0.279983	0.672607
     29454.60	0.11515	1733005.0	1309844.0	669283.0	0.279949	0.671456
     29455.10	0.12014	1811067.0	1369035.0	699219.0	0.279810	0.671897
     29455.60	0.12345	1859282.0	1405697.0	718379.0	0.279657	0.671291
     29456.10	0.11406	1712947.0	1294858.0	662111.0	0.279814	0.670723
     29456.59	0.12391	1863699.0	1408916.0	720933.0	0.279743	0.670030
     29457.09	0.11783	1774953.0	1342233.0	686925.0	0.279439	0.669865
     29457.59	0.11795	1776716.0	1343423.0	687652.0	0.279546	0.669693
     29458.09	0.12221	1837461.0	1389387.0	711691.0	0.279522	0.668974
     29458.59	0.10801	1623259.0	1227011.0	628600.0	0.279855	0.668841
     29459.09	0.11101	1668876.0	1261978.0	646838.0	0.279470	0.668340
     29459.59	0.12073	1815664.0	1373116.0	703590.0	0.279369	0.668642
     29460.09	0.12539	1878947.0	1421270.0	728978.0	0.279161	0.667663
     29460.59	0.12344	1860342.0	1406715.0	722071.0	0.279503	0.666889
     29461.09	0.12384	1862964.0	1409100.0	723235.0	0.279218	0.666972
     29461.59	0.12602	1888644.0	1427973.0	733424.0	0.279603	0.666287
     29462.09	0.15219	2289128.0	1731453.0	889379.0	0.279210	0.666193
     29462.58	0.10697	1610614.0	1218144.0	625754.0	0.279287	0.666126
     29463.08	0.13497	2025120.0	1531705.0	787180.0	0.279247	0.665680
     29463.58	0.13253	1993172.0	1507465.0	775077.0	0.279298	0.665222
     29464.08	0.12711	1897106.0	1434913.0	738277.0	0.279225	0.664540
     29464.58	0.12867	1928642.0	1458977.0	750901.0	0.279081	0.664217
     29465.08	0.13723	2061972.0	1559893.0	802702.0	0.279046	0.664389
     29465.58	0.18108	2722185.0	2059781.0	1060018.0	0.278835	0.664314
     29466.08	0.10973	1648735.0	1247205.0	642299.0	0.279103	0.663606
     29466.58	0.10780	1617470.0	1224140.0	630238.0	0.278625	0.663896
     29467.08	0.096908	1453470.0	1100021.0	566625.0	0.278625	0.663387
     29467.58	0.13957	2093457.0	1584117.0	816232.0	0.278790	0.663084
     29468.08	0.12961	1943897.0	1471088.0	758303.0	0.278692	0.662675
     29468.58	0.13353	2004164.0	1516839.0	781833.0	0.278598	0.662743
     29469.08	0.14514	2170899.0	1643306.0	847192.0	0.278431	0.662538
     29469.58	0.16496	2468505.0	1868339.0	963277.0	0.278563	0.662464
     29470.07	0.096480	1447686.0	1095822.0	565404.0	0.278462	0.661720
     29470.57	0.12528	1879332.0	1422341.0	733885.0	0.278612	0.661707
     29471.07	0.12989	1947557.0	1473975.0	760716.0	0.278613	0.661458
     29471.57	0.12070	1799261.0	1362127.0	703202.0	0.278329	0.661159
     29472.07	0.13329	1997954.0	1512417.0	781119.0	0.278415	0.660737
     29472.57	0.11609	1732711.0	1311696.0	677205.0	0.278366	0.661102
     29473.07	0.13699	2051485.0	1552893.0	802330.0	0.278444	0.660355
     29473.57	0.12070	1800614.0	1363391.0	704265.0	0.278153	0.660576
     29474.07	0.12445	1858576.0	1407332.0	726915.0	0.278115	0.660641
     29474.57	0.11806	1766412.0	1337176.0	690973.0	0.278390	0.660214
     29475.07	0.13438	2013466.0	1524517.0	787663.0	0.278180	0.660363
     29475.57	0.12190	1825352.0	1381939.0	714311.0	0.278285	0.659924
     29476.07	0.11930	1785966.0	1352460.0	698780.0	0.278034	0.660344
     29476.57	0.11734	1761792.0	1334247.0	689549.0	0.277964	0.660085
     29477.07	0.12740	1906943.0	1444352.0	746581.0	0.277841	0.659912
     29477.57	0.11019	1652963.0	1251893.0	647269.0	0.277913	0.659650
     29478.07	0.12616	1876183.0	1421221.0	735051.0	0.277723	0.659332
     29478.57	0.12331	1844544.0	1396992.0	722040.0	0.277911	0.659996
     29479.07	0.12267	1840741.0	1394149.0	720876.0	0.277884	0.659572
     29479.57	0.11309	1693984.0	1283178.0	663311.0	0.277743	0.659851
     29480.07	0.14383	2154527.0	1632136.0	843937.0	0.277682	0.659567
     29480.57	0.10968	1636629.0	1239804.0	640843.0	0.277685	0.659924
     29481.07	0.14801	2221588.0	1683214.0	870233.0	0.277517	0.659699
     29481.57	0.11603	1738645.0	1317261.0	680753.0	0.277551	0.660110
     29482.07	0.12818	1922934.0	1457059.0	753305.0	0.277432	0.659705
     29482.57	0.13503	2024401.0	1534108.0	793229.0	0.277325	0.659592
     29483.07	0.12963	1937789.0	1468485.0	759498.0	0.277316	0.659329
     29483.57	0.12384	1854764.0	1405765.0	727040.0	0.277176	0.659355
     29484.07	0.11031	1651486.0	1251268.0	647104.0	0.277518	0.659406
     29484.57	0.14092	2109806.0	1598679.0	826488.0	0.277418	0.659748
     29485.07	0.11794	1763623.0	1336487.0	691018.0	0.277326	0.659634
     29485.57	0.12085	1811525.0	1372923.0	709784.0	0.277227	0.659737
     29486.07	0.13188	1962579.0	1487629.0	769147.0	0.277076	0.659657
     29486.57	0.12325	1845737.0	1399378.0	723308.0	0.276851	0.659948
     29487.07	0.12263	1824134.0	1381972.0	714533.0	0.277594	0.659638
     29487.57	0.12926	1925446.0	1459690.0	754247.0	0.276934	0.660259
     29488.07	0.14983	2236715.0	1695689.0	877017.0	0.276919	0.659318
     29488.57	0.15049	2221411.0	1684041.0	870094.0	0.276946	0.660350
     29489.07	0.10073	1484195.0	1125064.0	581484.0	0.277033	0.660012
     29489.57	0.12370	1835696.0	1391588.0	719411.0	0.276978	0.659768
     29490.07	0.13232	1965674.0	1490261.0	769969.0	0.276884	0.660356
     29490.57	0.12517	1860227.0	1410798.0	729362.0	0.276543	0.659741
     29491.07	0.13274	1978756.0	1500680.0	775872.0	0.276550	0.659686
     29491.57	0.11872	1772586.0	1344283.0	694874.0	0.276579	0.659886
     29492.07	0.13092	1956164.0	1483157.0	766426.0	0.276812	0.660190
     29492.57	0.12075	1804424.0	1368186.0	707192.0	0.276756	0.659939
     29493.07	0.12392	1853584.0	1405751.0	726538.0	0.276549	0.660036
     29493.57	0.12438	1858851.0	1409777.0	728243.0	0.276527	0.660552
     29494.07	0.12088	1810739.0	1373348.0	709796.0	0.276483	0.660029
     29494.57	0.12013	1795536.0	1361565.0	703797.0	0.276669	0.659900
     29495.07	0.12176	1822690.0	1382546.0	714617.0	0.276387	0.659935
     29495.57	0.13620	2036764.0	1544938.0	798245.0	0.276378	0.660323
     29496.07	0.11406	1707263.0	1295112.0	669132.0	0.276294	0.660371
     29496.57	0.097987	1445318.0	1096853.0	566558.0	0.275884	0.660621
     29497.07	0.10615	1576092.0	1195622.0	617921.0	0.276282	0.660061
     29497.57	0.11715	1732118.0	1314062.0	679195.0	0.276222	0.659970
     29498.07	0.12060	1788945.0	1357442.0	701425.0	0.276024	0.660243
     29498.57	0.13001	1940661.0	1472442.0	761050.0	0.276106	0.659978
     29499.07	0.12790	1906757.0	1447165.0	747572.0	0.275797	0.660531
     29499.57	0.12517	1870694.0	1419317.0	733091.0	0.276134	0.660661
     29500.07	0.12961	1938849.0	1471191.0	760143.0	0.276022	0.660321
     29500.58	0.13737	2040824.0	1548635.0	800250.0	0.275980	0.660205
     29501.08	0.12692	1878431.0	1426105.0	737080.0	0.275490	0.660006
     29501.58	0.12772	1896381.0	1439188.0	743981.0	0.275868	0.659819
     29502.08	0.13498	2009744.0	1525341.0	788330.0	0.275789	0.660056
     29502.58	0.12906	1920376.0	1457508.0	753127.0	0.275793	0.660250
     29503.08	0.14497	2159796.0	1639021.0	847439.0	0.275915	0.659636
     29503.58	0.16183	2410398.0	1829741.0	945530.0	0.275617	0.660184
     29504.08	0.098988	1476672.0	1120948.0	579639.0	0.275616	0.659525
     29504.58	0.11836	1765119.0	1340153.0	692609.0	0.275434	0.660073
     29505.08	0.12098	1807028.0	1371796.0	709090.0	0.275563	0.659894
     29505.58	0.14468	2157308.0	1637700.0	846801.0	0.275568	0.659582
     29506.08	0.13543	2022411.0	1535783.0	794213.0	0.275250	0.659444
     29506.58	0.17092	2551435.0	1937485.0	1002046.0	0.275265	0.659347
     29507.08	0.18449	2757226.0	2094080.0	1083508.0	0.275111	0.658910
     29507.58	0.10025	1493500.0	1134130.0	586709.0	0.275257	0.659092
     29508.09	0.066572	992789.0	753857.0	389864.0	0.275315	0.659405
     29508.59	0.12533	1868712.0	1419338.0	734363.0	0.275059	0.658942
     29509.09	0.12624	1886815.0	1432896.0	741848.0	0.275193	0.658308
     29509.59	0.13019	1942699.0	1475277.0	763793.0	0.275232	0.658304
     29510.09	0.12920	1928957.0	1465178.0	758558.0	0.275003	0.658313
     29510.59	0.11836	1766379.0	1341651.0	694699.0	0.275031	0.658178
     29511.09	0.13169	1966208.0	1493581.0	773297.0	0.274930	0.658269
     29511.59	0.11834	1759651.0	1336743.0	692597.0	0.274879	0.657543
     29512.09	0.12173	1815698.0	1379605.0	714793.0	0.274673	0.657560
     29512.59	0.12365	1844672.0	1401188.0	726004.0	0.274981	0.657520
     29513.09	0.12850	1919717.0	1458627.0	755873.0	0.274682	0.657377
     29513.60	0.12837	1915133.0	1454854.0	754052.0	0.274882	0.657199
     29514.10	0.12908	1922537.0	1460573.0	757119.0	0.274817	0.657064
     29514.60	0.12000	1791165.0	1361299.0	705683.0	0.274427	0.657029
     29515.10	0.12690	1895830.0	1440532.0	747197.0	0.274644	0.656439
     29515.60	0.11312	1689136.0	1283550.0	665994.0	0.274587	0.656104
     29516.10	0.11724	1743874.0	1325327.0	687802.0	0.274450	0.655913
     29516.60	0.12660	1885617.0	1433213.0	743702.0	0.274336	0.656034
     29517.10	0.11758	1755350.0	1334215.0	692703.0	0.274325	0.655497
     29517.60	0.11936	1779068.0	1352225.0	702085.0	0.274338	0.655452
     29518.10	0.12898	1917729.0	1457471.0	756881.0	0.274439	0.655252
     29518.61	0.12843	1908176.0	1450606.0	753789.0	0.274166	0.654624
     29519.11	0.11955	1776122.0	1349909.0	701554.0	0.274395	0.654495
     29519.61	0.13497	2006235.0	1524960.0	792552.0	0.274292	0.654465
     29520.11	0.13503	2012817.0	1529923.0	795312.0	0.274318	0.654238
     29520.61	0.12009	1786541.0	1357851.0	706284.0	0.274378	0.653641
     29521.11	0.13196	1960684.0	1490647.0	775413.0	0.274083	0.653570
     29521.61	0.14184	2108040.0	1602273.0	833649.0	0.274335	0.653366
     29522.11	0.11798	1749434.0	1329557.0	691698.0	0.274447	0.653452
     29522.62	0.12230	1817770.0	1381904.0	719356.0	0.274148	0.652861
     29523.12	0.11483	1702166.0	1293872.0	673872.0	0.274262	0.652354
     29523.62	0.12057	1786267.0	1358137.0	707436.0	0.274014	0.652222
     29524.12	0.13627	2014428.0	1531486.0	797930.0	0.274097	0.651973
     29524.62	0.11524	1699541.0	1292108.0	673423.0	0.274083	0.651657
     29525.12	0.14089	2086196.0	1586209.0	826914.0	0.273995	0.651401
     29525.62	0.12171	1796800.0	1366540.0	712541.0	0.273725	0.651200
     29526.12	0.13796	2043493.0	1554372.0	810487.0	0.273589	0.651192
     29526.63	0.11890	1763570.0	1341164.0	699720.0	0.273802	0.650613
     29527.13	0.13696	2032347.0	1545619.0	806429.0	0.273767	0.650564
     29527.63	0.11736	1737870.0	1321794.0	690084.0	0.273670	0.649932
     29528.13	0.13627	2026584.0	1541378.0	804884.0	0.273675	0.649734
     29528.63	0.12986	1932410.0	1469897.0	768031.0	0.273576	0.649118
     29529.13	0.11706	1739830.0	1323313.0	691462.0	0.273649	0.649086
     29529.64	0.13259	1969170.0	1497918.0	782959.0	0.273536	0.648751
     29530.14	0.12999	1916875.0	1458596.0	762448.0	0.273222	0.648695
     29530.64	0.12807	1897063.0	1443229.0	754732.0	0.273424	0.648276
     29531.14	0.11963	1776426.0	1351774.0	706925.0	0.273186	0.648249
     29531.64	0.12720	1890001.0	1437739.0	752502.0	0.273506	0.647423
     29532.14	0.11524	1711861.0	1302271.0	681620.0	0.273471	0.647393
     29532.64	0.11825	1760416.0	1339344.0	701021.0	0.273370	0.647397
     29533.15	0.11691	1740018.0	1324005.0	693534.0	0.273234	0.646616
     29533.65	0.13321	1970995.0	1499490.0	785595.0	0.273413	0.646439
     29534.15	0.11003	1602759.0	1219618.0	639403.0	0.273189	0.645758
     29534.65	0.12824	1881637.0	1431741.0	750495.0	0.273251	0.645913
     29535.15	0.10389	1522463.0	1158452.0	607662.0	0.273245	0.645221
     29535.65	0.12025	1779201.0	1353791.0	709951.0	0.273256	0.645468
     29536.16	0.10840	1604940.0	1221425.0	640972.0	0.273068	0.644788
     29536.66	0.12637	1876608.0	1428109.0	749110.0	0.273115	0.645221
     29537.16	0.11508	1704371.0	1297118.0	680662.0	0.273051	0.644834
     29537.66	0.12277	1822608.0	1387070.0	728380.0	0.273075	0.644126
     29538.16	0.13139	1942660.0	1478514.0	776660.0	0.273021	0.643790
     29538.67	0.12479	1846315.0	1405168.0	738453.0	0.273035	0.643355
     29539.17	0.13222	1961753.0	1492852.0	784456.0	0.273150	0.643453
     29539.67	0.11934	1770892.0	1347837.0	708344.0	0.272982	0.643327
     29540.17	0.13197	1948384.0	1482867.0	779599.0	0.273023	0.642953
     29540.67	0.13576	2010922.0	1530721.0	804953.0	0.272854	0.642710
     29541.17	0.12420	1841823.0	1402115.0	737654.0	0.272774	0.642262
     29541.68	0.13240	1963981.0	1495335.0	787159.0	0.272623	0.641675
     29542.18	0.13603	2018663.0	1536911.0	808978.0	0.272661	0.641758
     29542.68	0.13759	2040949.0	1553852.0	818176.0	0.272678	0.641415
     29543.18	0.10423	1540825.0	1173027.0	617995.0	0.272730	0.640862
     29543.68	0.13714	2036841.0	1550387.0	816829.0	0.272896	0.640830
     29544.19	0.12618	1867646.0	1421799.0	748871.0	0.272756	0.641112
     29544.69	0.13080	1940431.0	1477384.0	778788.0	0.272637	0.640289
     29545.19	0.13340	1972158.0	1501327.0	791487.0	0.272779	0.640191
     29545.69	0.13313	1974130.0	1503306.0	793103.0	0.272461	0.639469
     29546.19	0.15789	2338964.0	1781271.0	939632.0	0.272381	0.639594
     29546.70	0.11703	1734213.0	1320581.0	696690.0	0.272482	0.639487
     29547.20	0.11789	1749332.0	1332212.0	702841.0	0.272393	0.639465
     29547.70	0.13173	1954761.0	1488882.0	785609.0	0.272242	0.639322
     29548.20	0.12889	1913839.0	1457879.0	769569.0	0.272129	0.638907
     29548.71	0.12534	1855780.0	1413382.0	746290.0	0.272320	0.638626
     29549.21	0.12766	1884459.0	1435333.0	758008.0	0.272244	0.638458
     29549.71	0.13059	1931466.0	1471340.0	777198.0	0.272106	0.638234
     29550.21	0.12742	1870693.0	1424705.0	752496.0	0.272344	0.638324
     29550.71	0.12414	1838368.0	1400481.0	739916.0	0.272062	0.638034
     29551.22	0.11960	1769419.0	1348026.0	712450.0	0.272010	0.637687
     29551.72	0.13056	1928297.0	1469274.0	776646.0	0.271869	0.637539
     29552.22	0.12428	1843686.0	1404500.0	742315.0	0.272085	0.637663
     29552.72	0.12816	1901939.0	1448935.0	765930.0	0.272045	0.637493
     29553.23	0.12905	1914808.0	1459026.0	771294.0	0.271848	0.637455
     29553.73	0.12278	1816995.0	1384639.0	732509.0	0.271745	0.636719
     29554.23	0.12226	1805335.0	1375901.0	727612.0	0.271637	0.637096
     29554.73	0.12564	1862238.0	1419285.0	750906.0	0.271626	0.636628
     29555.24	0.11209	1648823.0	1256662.0	664926.0	0.271603	0.636539
     29555.74	0.12307	1821637.0	1388351.0	734899.0	0.271619	0.636139
     29556.24	0.12063	1783156.0	1358844.0	718937.0	0.271750	0.636616
     29556.74	0.12097	1781782.0	1357863.0	718854.0	0.271702	0.636009
     29557.24	0.12146	1794702.0	1367854.0	724133.0	0.271596	0.636023
     29557.75	0.13127	1941063.0	1479403.0	783598.0	0.271597	0.635498
     29558.25	0.11731	1732454.0	1320315.0	699146.0	0.271669	0.635766
     29558.75	0.12499	1847139.0	1408173.0	745635.0	0.271345	0.635812
     29559.26	0.13200	1956934.0	1491704.0	790013.0	0.271460	0.635625
     29559.76	0.12041	1781375.0	1358253.0	719652.0	0.271186	0.635187
     29560.26	0.14184	2096052.0	1598116.0	846450.0	0.271230	0.635530
     29560.76	0.12240	1813437.0	1382468.0	732560.0	0.271354	0.635080
     29561.27	0.13172	1945640.0	1483217.0	786015.0	0.271378	0.634993
     29561.77	0.12395	1830037.0	1395596.0	739500.0	0.271015	0.635103
     29562.27	0.14422	2129849.0	1623777.0	860302.0	0.271296	0.635227
     29562.77	0.099174	1465415.0	1116997.0	591914.0	0.271495	0.635038
     29563.28	0.11710	1722404.0	1313320.0	696198.0	0.271163	0.634679
     29563.78	0.13007	1923851.0	1467152.0	777674.0	0.271006	0.634771
     29564.28	0.12398	1832781.0	1397318.0	740918.0	0.271280	0.634420
     29564.78	0.12748	1882849.0	1435723.0	761148.0	0.271118	0.634596
     29565.29	0.13551	2003044.0	1527622.0	809979.0	0.270956	0.634459
     29565.79	0.12734	1882760.0	1435668.0	761374.0	0.271109	0.634261
     29566.29	0.14364	2121657.0	1617465.0	857540.0	0.271337	0.634548
     29566.80	0.13325	1953844.0	1490419.0	790753.0	0.270741	0.633827
     29567.30	0.12091	1787974.0	1363637.0	723350.0	0.270928	0.634017
     29567.80	0.12177	1795393.0	1369293.0	726431.0	0.270929	0.633906
     29568.30	0.13066	1922666.0	1466293.0	777550.0	0.270975	0.634345
     29568.81	0.12589	1855050.0	1415155.0	750406.0	0.270673	0.634380
     29569.31	0.13371	1976965.0	1507925.0	799974.0	0.270828	0.633911
     29569.81	0.11993	1767676.0	1348504.0	715559.0	0.270670	0.633687
     29570.32	0.13279	1955282.0	1491610.0	791215.0	0.270678	0.634042
     29570.82	0.12311	1813041.0	1382903.0	733739.0	0.270821	0.633787
     29571.32	0.11484	1697170.0	1294788.0	686911.0	0.270615	0.633898
     29571.82	0.11700	1727210.0	1317785.0	699036.0	0.270555	0.634005
     29572.33	0.12839	1874469.0	1430245.0	758988.0	0.270480	0.633615
     29572.83	0.11939	1752556.0	1337350.0	709719.0	0.270385	0.633576
     29573.33	0.12876	1899192.0	1449030.0	769007.0	0.270534	0.633550
     29573.84	0.12821	1893165.0	1444498.0	766617.0	0.270488	0.633530
     29574.34	0.12140	1786048.0	1362952.0	723707.0	0.270352	0.633022
     29574.84	0.10913	1607000.0	1226707.0	651346.0	0.270036	0.633048
     29575.35	0.11767	1733732.0	1323072.0	702294.0	0.270320	0.633359
     29575.85	0.10964	1616830.0	1234172.0	655045.0	0.270067	0.633452
     29576.35	0.11182	1644653.0	1255367.0	666438.0	0.270101	0.633236
     29576.85	0.12005	1771250.0	1351864.0	717654.0	0.270201	0.633252
     29577.36	0.11723	1730611.0	1320887.0	701270.0	0.270171	0.633166
     29577.86	0.14143	2087339.0	1593516.0	846070.0	0.269947	0.633096
     29578.36	0.14053	2074977.0	1584261.0	841098.0	0.269832	0.633165
     29578.87	0.12365	1825343.0	1393812.0	740166.0	0.269725	0.632923
     29579.37	0.10910	1605869.0	1226007.0	651148.0	0.269902	0.632781
     29579.87	0.11940	1759838.0	1343290.0	713364.0	0.270100	0.632885
     29580.38	0.12590	1851016.0	1413101.0	750480.0	0.269948	0.632829
     29580.88	0.13195	1943913.0	1484026.0	788188.0	0.269944	0.632777
     29581.38	0.13936	2051254.0	1566443.0	832129.0	0.269644	0.632575
     29581.89	0.12558	1844111.0	1407850.0	747866.0	0.269934	0.632595
     29582.39	0.13962	2041591.0	1559031.0	828275.0	0.269665	0.632475
     29582.89	0.12276	1807899.0	1380851.0	733676.0	0.269465	0.632388
     29583.40	0.12364	1821019.0	1390449.0	738898.0	0.269770	0.632222
     29583.90	0.12227	1803119.0	1377132.0	731875.0	0.269515	0.632149
     29584.40	0.12751	1878625.0	1434890.0	762470.0	0.269452	0.632280
     29584.91	0.13814	2031433.0	1551288.0	824968.0	0.269656	0.631496
     29585.41	0.13478	1982256.0	1514350.0	804735.0	0.269249	0.632229
     29585.91	0.14122	2072305.0	1582760.0	841193.0	0.269491	0.632104
     29586.42	0.14761	2173214.0	1659967.0	882414.0	0.269409	0.631892
     29586.92	0.12378	1823195.0	1392811.0	740395.0	0.269266	0.631895
     29587.42	0.12551	1848429.0	1411704.0	750632.0	0.269539	0.631637
     29587.93	0.12247	1799754.0	1375024.0	731081.0	0.269179	0.631702
     29588.43	0.12296	1802936.0	1377461.0	732475.0	0.269174	0.631568
     29588.93	0.13122	1920968.0	1467611.0	780476.0	0.269193	0.631487
     29589.44	0.13435	1971187.0	1505980.0	800727.0	0.269192	0.631679
     29589.94	0.12254	1798938.0	1374622.0	731381.0	0.269018	0.631000
     29590.45	0.14272	2103015.0	1606921.0	854734.0	0.269052	0.631285
     29590.95	0.099521	1465225.0	1119398.0	595601.0	0.269218	0.630975
     29591.45	0.12283	1791739.0	1369011.0	728117.0	0.269098	0.631382
     29591.96	0.13068	1919525.0	1467011.0	780924.0	0.268851	0.630504
     29592.46	0.12512	1839523.0	1405772.0	747985.0	0.268920	0.630959
     29592.96	0.12877	1894186.0	1447612.0	770091.0	0.268874	0.631162
     29593.47	0.12446	1819284.0	1390441.0	739716.0	0.268822	0.631110
     29593.97	0.12054	1768120.0	1351561.0	719143.0	0.268657	0.630955
     29594.48	0.12295	1807906.0	1382064.0	735604.0	0.268591	0.630641
     29594.98	0.11432	1661406.0	1269894.0	676164.0	0.268731	0.630253
     29595.48	0.12641	1847542.0	1412503.0	752387.0	0.268493	0.629868
     29595.99	0.11959	1745341.0	1334373.0	710458.0	0.268488	0.630307
     29596.49	0.11397	1669458.0	1276367.0	680059.0	0.268481	0.629593
     29596.99	0.12345	1809874.0	1383490.0	736896.0	0.268648	0.629918
     29597.50	0.13239	1942497.0	1485188.0	791494.0	0.268433	0.629374
     29598.00	0.11970	1758947.0	1344517.0	716518.0	0.268680	0.629387
     29598.51	0.12692	1863057.0	1424310.0	758952.0	0.268531	0.629504
     29599.01	0.12279	1800213.0	1376780.0	733984.0	0.268158	0.629015
     29599.51	0.13702	2003575.0	1532470.0	816990.0	0.268052	0.629009
     29600.02	0.12302	1806989.0	1381796.0	736842.0	0.268278	0.628766
     29600.52	0.12903	1890794.0	1446470.0	771526.0	0.267871	0.628511
     29601.03	0.12845	1878547.0	1436627.0	766383.0	0.268201	0.628371
     29601.53	0.13079	1919890.0	1468493.0	783379.0	0.268031	0.628375
     29602.03	0.13035	1913653.0	1463503.0	780425.0	0.268181	0.628750
     29602.54	0.10509	1532725.0	1172507.0	625759.0	0.267903	0.627934
     29603.04	0.13155	1891042.0	1446708.0	771855.0	0.267837	0.628249
     29603.55	0.11635	1677504.0	1282966.0	684866.0	0.268132	0.627707
     29604.05	0.13071	1886955.0	1443438.0	770700.0	0.267937	0.627484
     29604.55	0.13909	2025286.0	1549755.0	827396.0	0.267614	0.627569
     29605.06	0.11975	1740973.0	1331498.0	710964.0	0.268140	0.627438
     29605.56	0.13052	1908530.0	1460073.0	779854.0	0.267847	0.627135
     29606.07	0.12339	1808866.0	1383885.0	739013.0	0.267805	0.627335
     29606.57	0.13268	1942514.0	1486115.0	794011.0	0.267818	0.626823
     29607.07	0.11589	1702747.0	1302904.0	696278.0	0.267647	0.626602
     29607.58	0.13193	1928130.0	1475515.0	788773.0	0.267544	0.626284
     29608.08	0.12726	1862508.0	1425079.0	761797.0	0.267697	0.626302
     29608.59	0.13505	1981642.0	1516453.0	810753.0	0.267552	0.626166
     29609.09	0.13276	1941178.0	1485627.0	794430.0	0.267458	0.625967
     29609.60	0.13789	2013639.0	1540965.0	824176.0	0.267535	0.625780
     29610.10	0.11955	1752661.0	1341686.0	717835.0	0.267208	0.625443
     29610.60	0.12529	1837093.0	1406420.0	752469.0	0.267137	0.625443
     29611.11	0.12500	1836836.0	1406020.0	752462.0	0.267282	0.625168
     29611.61	0.11804	1732062.0	1325501.0	709739.0	0.267522	0.624648
     29612.12	0.12399	1821904.0	1394502.0	746441.0	0.267345	0.624976
     29612.62	0.12298	1804954.0	1381879.0	740208.0	0.267091	0.624268
     29613.13	0.12879	1886153.0	1443728.0	773396.0	0.267311	0.624193
     29613.63	0.12934	1897391.0	1452721.0	778389.0	0.267041	0.623967
     29614.13	0.11026	1614974.0	1236180.0	662366.0	0.267293	0.623963
     29614.64	0.11425	1675557.0	1282570.0	687319.0	0.267280	0.623823
     29615.14	0.11523	1690262.0	1293730.0	693925.0	0.267354	0.622921
     29615.65	0.10810	1585004.0	1213715.0	650877.0	0.266901	0.623120
     29616.15	0.11674	1713065.0	1311704.0	703309.0	0.266957	0.623286
     29616.66	0.12408	1818946.0	1392738.0	747117.0	0.266986	0.622805
     29617.16	0.11352	1665835.0	1275722.0	684482.0	0.266814	0.622605
     29617.67	0.12008	1762502.0	1349826.0	724652.0	0.266759	0.622039
     29618.17	0.11110	1624167.0	1243737.0	667939.0	0.266875	0.621679
     29618.68	0.13311	1943504.0	1488420.0	799053.0	0.266777	0.622043
     29619.18	0.12192	1787114.0	1368865.0	735508.0	0.266620	0.621176
     29619.68	0.13310	1947494.0	1491565.0	801398.0	0.266718	0.621223
     29620.19	0.12850	1881059.0	1440826.0	774238.0	0.266618	0.621093
     29620.69	0.14415	2102520.0	1610581.0	865285.0	0.266542	0.621291
     29621.20	0.11503	1682933.0	1289323.0	693052.0	0.266421	0.620768
     29621.70	0.14894	2175166.0	1666350.0	895867.0	0.266469	0.620599
     29622.21	0.12991	1897084.0	1453548.0	781617.0	0.266311	0.620398
     29622.71	0.11387	1664614.0	1275691.0	686271.0	0.266105	0.619971
     29623.22	0.13543	1977704.0	1514997.0	815180.0	0.266523	0.619760
     29623.72	0.11561	1689935.0	1294534.0	696495.0	0.266539	0.619845
     29624.23	0.13134	1922113.0	1472906.0	792674.0	0.266188	0.619581
     29624.73	0.14031	2048620.0	1569612.0	844763.0	0.266338	0.619528
     29625.24	0.13395	1957670.0	1499837.0	807490.0	0.266399	0.619181
     29625.74	0.13375	1959468.0	1501839.0	808817.0	0.265983	0.618873
     29626.25	0.13174	1929552.0	1478381.0	796411.0	0.266340	0.618587
     29626.75	0.14149	2072442.0	1588446.0	855535.0	0.265971	0.618784
     29627.26	0.11519	1683644.0	1290520.0	695697.0	0.265915	0.617886
     29627.76	0.12878	1882961.0	1443426.0	777833.0	0.265826	0.618263
     29628.27	0.13366	1948699.0	1493911.0	805419.0	0.265764	0.617790
     29628.77	0.13096	1917553.0	1469504.0	792312.0	0.266125	0.617725
     29629.28	0.13487	1968914.0	1509464.0	814492.0	0.265728	0.616945
     29629.78	0.13189	1927569.0	1477436.0	797248.0	0.265951	0.616898
     29630.28	0.12243	1789494.0	1371638.0	740258.0	0.265927	0.616762
     29630.79	0.12560	1835434.0	1406916.0	759224.0	0.265881	0.616858
     29631.29	0.11525	1685118.0	1291970.0	697346.0	0.265667	0.616642
     29631.80	0.12231	1786421.0	1369432.0	739472.0	0.265818	0.616215
     29632.31	0.12789	1870869.0	1434333.0	774747.0	0.265703	0.615919
     29632.81	0.13069	1908116.0	1463182.0	790360.0	0.265503	0.615880
     29633.32	0.12103	1763754.0	1352677.0	730355.0	0.265359	0.616310
     29633.82	0.13476	1962000.0	1504103.0	813010.0	0.265768	0.615209
     29634.33	0.12657	1845312.0	1414825.0	764429.0	0.265643	0.615632
     29634.83	0.11497	1678590.0	1287077.0	695758.0	0.265580	0.615127
     29635.34	0.12851	1872429.0	1435893.0	776340.0	0.265450	0.614952
     29635.84	0.11871	1732408.0	1328597.0	718518.0	0.265389	0.614688
     29636.35	0.11582	1689891.0	1296075.0	701020.0	0.265324	0.614559
     29636.85	0.13083	1897903.0	1455403.0	787643.0	0.265467	0.613993
     29637.36	0.11229	1638400.0	1256672.0	680051.0	0.265253	0.614054
     29637.86	0.13396	1951251.0	1496693.0	809730.0	0.265213	0.614312
     29638.37	0.11774	1718209.0	1317954.0	713380.0	0.265202	0.613822
     29638.87	0.11777	1714323.0	1314906.0	711853.0	0.265253	0.613649
     29639.38	0.11802	1721944.0	1320896.0	715108.0	0.265144	0.613632
     29639.88	0.13217	1929114.0	1479116.0	801282.0	0.265616	0.612987
     29640.39	0.12993	1894773.0	1453731.0	787059.0	0.264966	0.613585
     29640.89	0.12613	1834241.0	1406895.0	762033.0	0.265246	0.613151
     29641.40	0.12971	1867459.0	1432475.0	776154.0	0.265175	0.612808
     29641.90	0.13275	1911035.0	1466181.0	794100.0	0.264984	0.613207
     29642.41	0.13419	1943035.0	1490789.0	807911.0	0.264946	0.612609
     29642.91	0.12608	1829496.0	1403457.0	760499.0	0.265102	0.612719
     29643.42	0.11217	1627857.0	1249230.0	677180.0	0.264737	0.612346
     29643.93	0.12257	1780164.0	1365731.0	740369.0	0.265016	0.612296
     29644.43	0.11785	1687952.0	1295392.0	702318.0	0.264703	0.612182
     29644.94	0.12853	1873983.0	1438067.0	780043.0	0.264766	0.611706
     29645.44	0.12273	1791040.0	1374610.0	745985.0	0.264626	0.611220
     29645.95	0.12819	1866286.0	1432887.0	777171.0	0.264259	0.611786
     29646.45	0.14251	2067234.0	1586283.0	860471.0	0.264818	0.611669
     29646.96	0.12825	1867864.0	1433411.0	778021.0	0.264739	0.611059
     29647.46	0.13083	1908444.0	1464630.0	794650.0	0.264686	0.611456
     29647.97	0.11844	1723555.0	1323138.0	717769.0	0.264383	0.611614
     29648.48	0.11979	1744329.0	1339029.0	726804.0	0.264425	0.611043
     29648.98	0.13404	1956605.0	1502043.0	815459.0	0.264385	0.610830
     29649.49	0.14123	2060666.0	1581743.0	858695.0	0.264502	0.610869
     29649.99	0.13079	1907409.0	1464311.0	795031.0	0.264361	0.610759
     29650.50	0.12815	1869021.0	1435073.0	779075.0	0.264199	0.610864
     29651.00	0.15275	2227157.0	1709752.0	928673.0	0.264378	0.610347
     29651.51	0.11666	1701930.0	1306358.0	709774.0	0.264520	0.610052
     29652.02	0.11113	1621693.0	1245013.0	676473.0	0.264325	0.610009
     29652.52	0.12241	1786685.0	1371936.0	745269.0	0.264139	0.610233
     29653.03	0.12031	1754842.0	1347102.0	732301.0	0.264423	0.609519
     29653.53	0.13696	1997036.0	1533659.0	833278.0	0.264008	0.610044
     29654.04	0.11275	1639916.0	1259067.0	684192.0	0.264274	0.609888
     29654.54	0.13941	2032752.0	1560800.0	848095.0	0.264192	0.609961
     29655.05	0.14935	2178440.0	1672679.0	909036.0	0.264182	0.609797
     29655.56	0.11647	1696940.0	1303201.0	708454.0	0.264003	0.609494
     29656.06	0.12211	1775663.0	1363623.0	741251.0	0.264029	0.609561
     29656.57	0.10258	1491171.0	1145093.0	622727.0	0.264076	0.609133
     29657.07	0.086672	1264810.0	971257.0	528130.0	0.264086	0.609249
     29657.58	0.11949	1732577.0	1330916.0	723599.0	0.263742	0.609385
     29658.09	0.11479	1664846.0	1278939.0	695698.0	0.263702	0.608870
     29658.59	0.12058	1755389.0	1347968.0	733194.0	0.264092	0.608943
     29659.10	0.11434	1667886.0	1281066.0	696793.0	0.263864	0.608959
     29659.60	0.13976	2035236.0	1563402.0	850496.0	0.263748	0.608800
     29660.11	0.10660	1552553.0	1192555.0	648547.0	0.263803	0.609119
     29660.62	0.11838	1722556.0	1323155.0	720155.0	0.263790	0.608308
     29661.12	0.13105	1908850.0	1466576.0	797673.0	0.263571	0.608987
     29661.63	0.14708	2137183.0	1642222.0	893739.0	0.263438	0.608392
     29662.13	0.12692	1846422.0	1418892.0	772311.0	0.263373	0.608244
     29662.64	0.13362	1942994.0	1493223.0	812496.0	0.263293	0.608581
     29663.15	0.13225	1925535.0	1479035.0	805347.0	0.263814	0.607872
     29663.65	0.19291	2809115.0	2158434.0	1175104.0	0.263487	0.608026
     29664.16	0.094692	1377274.0	1058413.0	576103.0	0.263336	0.608239
     29664.66	0.076595	1115881.0	857161.0	466968.0	0.263774	0.607365
     29665.17	0.13403	1947319.0	1496377.0	814805.0	0.263407	0.607853
     29665.68	0.13624	1980663.0	1522378.0	828810.0	0.263158	0.608038
     29666.18	0.12076	1755564.0	1349002.0	734791.0	0.263425	0.607534
     29666.69	0.13733	1988161.0	1528300.0	832318.0	0.263054	0.607697
     29667.19	0.14045	2037949.0	1566739.0	853198.0	0.262948	0.607760
     29667.70	0.14427	2083154.0	1601191.0	872367.0	0.263135	0.607293
     29668.21	0.10967	1586746.0	1219731.0	664410.0	0.263055	0.607486
     29668.71	0.14271	2071513.0	1592518.0	867801.0	0.262963	0.607109
     29669.22	0.12847	1861760.0	1430922.0	779830.0	0.263203	0.606998
     29669.73	0.12395	1780005.0	1368228.0	746067.0	0.263100	0.606456
     29670.23	0.13801	1992875.0	1532325.0	835307.0	0.262792	0.606742
     29670.74	0.12248	1756854.0	1350957.0	736606.0	0.262711	0.606515
     29671.25	0.13278	1901935.0	1462108.0	797085.0	0.262993	0.606673
     29671.75	0.11686	1662902.0	1278362.0	697220.0	0.262985	0.606234
     29672.26	0.12196	1748283.0	1344206.0	732855.0	0.262831	0.606611
     29672.76	0.12849	1849668.0	1421813.0	775384.0	0.263073	0.606330
     29673.27	0.12311	1771153.0	1361911.0	742879.0	0.262742	0.606111
     29673.78	0.12386	1786447.0	1373879.0	749372.0	0.262591	0.606158
     29674.28	0.13281	1923079.0	1478735.0	806748.0	0.262741	0.605931
     29674.79	0.12285	1776154.0	1366094.0	745196.0	0.262495	0.606064
     29675.30	0.11637	1682801.0	1293770.0	706074.0	0.262899	0.605596
     29675.80	0.12514	1809859.0	1392261.0	759655.0	0.262320	0.605820
     29676.31	0.12365	1786785.0	1374550.0	750053.0	0.262292	0.605738
     29676.82	0.12290	1779426.0	1368547.0	746917.0	0.262541	0.605551
     29677.32	0.11963	1728273.0	1329322.0	725637.0	0.262454	0.605374
     29677.83	0.11997	1740834.0	1338900.0	730876.0	0.262516	0.605360
     29678.34	0.12842	1860241.0	1430604.0	780979.0	0.262609	0.605304
     29678.84	0.12290	1778079.0	1367676.0	746741.0	0.262421	0.605150
     29679.35	0.11335	1639713.0	1261533.0	688784.0	0.262194	0.605155
     29679.86	0.12383	1795148.0	1381026.0	754070.0	0.262261	0.605097
     29680.36	0.12442	1800468.0	1384930.0	756512.0	0.262397	0.604686
     29680.87	0.12659	1831520.0	1408766.0	769576.0	0.262432	0.604630
     29681.38	0.13030	1890382.0	1454671.0	794479.0	0.261999	0.604848
     29681.88	0.12840	1860182.0	1431077.0	781765.0	0.262247	0.604628
     29682.39	0.13896	2013530.0	1549470.0	846401.0	0.261976	0.604675
     29682.90	0.12446	1803659.0	1388042.0	758244.0	0.261923	0.604644
     29683.40	0.13060	1887947.0	1452716.0	794043.0	0.262055	0.604053
     29683.91	0.10862	1572385.0	1210200.0	661433.0	0.261808	0.604132
     29684.42	0.13086	1896200.0	1459324.0	797666.0	0.261879	0.604039
     29684.92	0.13236	1918159.0	1476321.0	807016.0	0.261813	0.603965
     29685.43	0.11270	1636160.0	1259120.0	688248.0	0.261939	0.604019
     29685.94	0.12820	1861492.0	1432251.0	782799.0	0.262131	0.604127
     29686.44	0.13417	1944874.0	1496770.0	818206.0	0.261888	0.603951
     29686.95	0.12140	1756824.0	1352147.0	739431.0	0.261814	0.603568
     29687.46	0.12761	1848899.0	1423150.0	778306.0	0.261718	0.603508
     29687.97	0.13666	1979636.0	1523943.0	833431.0	0.261612	0.603505
     29688.47	0.12647	1833575.0	1411502.0	772089.0	0.261613	0.603310
     29688.98	0.13400	1944206.0	1496738.0	818852.0	0.261566	0.603140
     29689.49	0.13007	1880887.0	1447772.0	792125.0	0.261718	0.603062
     29689.99	0.13256	1914309.0	1473932.0	806666.0	0.261423	0.602779
     29690.50	0.12537	1818495.0	1400129.0	766189.0	0.261445	0.602891
     29691.01	0.12993	1880821.0	1448033.0	792713.0	0.261502	0.602500
     29691.51	0.12675	1835158.0	1412962.0	773335.0	0.261442	0.602731
     29692.02	0.11861	1717130.0	1321881.0	723668.0	0.261599	0.602478
     29692.53	0.12645	1831654.0	1410197.0	771694.0	0.261490	0.602897
     29693.04	0.12050	1745240.0	1343765.0	735787.0	0.261417	0.602290
     29693.54	0.13510	1958129.0	1507771.0	825682.0	0.261357	0.602178
     29694.05	0.12090	1751015.0	1348676.0	738581.0	0.261072	0.602148
     29694.56	0.12683	1836326.0	1414201.0	774736.0	0.261202	0.601798
     29695.06	0.11596	1676561.0	1291123.0	707500.0	0.261232	0.601530
     29695.57	0.11466	1660730.0	1278865.0	700838.0	0.261284	0.601451
     29696.08	0.11720	1693664.0	1304157.0	714765.0	0.261337	0.601358
     29696.59	0.12653	1827449.0	1407773.0	771074.0	0.260912	0.601980
     29697.09	0.11032	1595693.0	1229187.0	673565.0	0.260955	0.601524
     29697.60	0.11498	1660383.0	1278737.0	700869.0	0.261175	0.601307
     29698.11	0.11890	1716026.0	1321781.0	724597.0	0.261031	0.601120
     29698.62	0.10598	1530678.0	1179047.0	646491.0	0.261004	0.600902
     29699.12	0.12378	1791362.0	1380146.0	756822.0	0.260787	0.600816
     29699.63	0.12039	1742663.0	1342669.0	736567.0	0.260755	0.600415
     29700.14	0.12119	1754507.0	1351894.0	741666.0	0.260681	0.600363
     29700.65	0.12992	1877310.0	1446220.0	793290.0	0.260887	0.600520
     29701.15	0.12739	1843342.0	1420380.0	779593.0	0.260656	0.599908
     29701.66	0.13655	1973360.0	1520708.0	834637.0	0.260562	0.599934
     29702.17	0.12931	1872547.0	1442574.0	792029.0	0.260871	0.599586
     29702.67	0.12211	1767787.0	1362199.0	747764.0	0.260628	0.599768
     29703.18	0.13384	1934043.0	1490711.0	818544.0	0.260359	0.599481
     29703.69	0.11953	1729163.0	1332850.0	731918.0	0.260318	0.599406
     29704.20	0.14014	2017174.0	1554462.0	853655.0	0.260568	0.599358
     29704.70	0.12078	1746034.0	1345817.0	739067.0	0.260346	0.599368
     29705.21	0.13325	1924332.0	1482989.0	814666.0	0.260519	0.599037
     29705.72	0.13100	1886690.0	1454297.0	798729.0	0.260301	0.599256
     29706.23	0.13840	2000793.0	1542385.0	847584.0	0.260214	0.598695
     29706.74	0.13044	1882449.0	1450929.0	797174.0	0.260370	0.598886
     29707.24	0.13776	1991900.0	1535325.0	843592.0	0.260347	0.598828
     29707.75	0.12546	1813535.0	1397713.0	768452.0	0.260441	0.598215
     29708.26	0.12762	1843269.0	1421144.0	781258.0	0.260078	0.598312
     29708.77	0.13544	1953614.0	1505883.0	828276.0	0.260302	0.597788
     29709.27	0.12682	1826054.0	1407654.0	774243.0	0.260233	0.597794
     29709.78	0.13402	1929412.0	1487957.0	818453.0	0.259811	0.597743
     29710.29	0.13701	1977773.0	1524427.0	838614.0	0.260353	0.597623
     29710.80	0.12978	1876231.0	1446890.0	795946.0	0.259849	0.597640
     29711.30	0.12127	1752298.0	1350986.0	743459.0	0.260093	0.597276
     29711.81	0.11395	1609588.0	1240831.0	682921.0	0.260197	0.597157
     29712.32	0.13340	1883703.0	1452405.0	799141.0	0.260019	0.597439
     29712.83	0.12376	1756068.0	1354229.0	745607.0	0.259845	0.596789
     29713.34	0.12259	1752448.0	1351615.0	743911.0	0.259713	0.597134
     29713.84	0.12779	1829801.0	1411095.0	776790.0	0.259841	0.596951
     29714.35	0.12753	1832246.0	1413330.0	778385.0	0.259594	0.596483
     29714.86	0.12809	1842222.0	1420671.0	782463.0	0.259843	0.596438
     29715.37	0.12180	1753672.0	1352316.0	745367.0	0.259893	0.595697
     29715.88	0.11784	1699043.0	1310689.0	722112.0	0.259512	0.596128
     29716.38	0.11908	1713686.0	1321929.0	728554.0	0.259555	0.595786
     29716.89	0.13233	1906043.0	1470121.0	810420.0	0.259685	0.595547
     29717.40	0.12268	1767898.0	1363430.0	751360.0	0.259788	0.595874
     29717.91	0.11841	1708583.0	1317970.0	726380.0	0.259572	0.595775
     29718.41	0.12344	1779178.0	1372181.0	756803.0	0.259750	0.595054
     29718.92	0.12006	1730492.0	1334773.0	735780.0	0.259645	0.595585
     29719.43	0.11421	1645615.0	1269656.0	700158.0	0.259368	0.595195
     29719.94	0.11780	1688568.0	1302507.0	718213.0	0.259590	0.595280
     29720.45	0.12436	1781025.0	1374117.0	757858.0	0.259378	0.595071
     29720.96	0.12431	1786168.0	1377913.0	760773.0	0.259503	0.593990
     29721.46	0.13754	1977150.0	1525383.0	841714.0	0.259411	0.594561
     29721.97	0.12931	1860570.0	1436222.0	792634.0	0.258867	0.594410
     29722.48	0.13872	1995146.0	1539436.0	849680.0	0.259301	0.594312
     29722.99	0.12047	1734682.0	1338488.0	739029.0	0.259283	0.593959
     29723.50	0.12565	1808243.0	1395330.0	770365.0	0.259225	0.594022
     29724.00	0.12140	1750953.0	1351432.0	746612.0	0.258995	0.593374
     29724.51	0.12894	1852384.0	1429304.0	789173.0	0.259286	0.593957
     29725.02	0.12566	1808428.0	1396043.0	770994.0	0.258816	0.593716
     29725.53	0.12615	1810168.0	1397176.0	772126.0	0.258967	0.593061
     29726.04	0.12399	1784917.0	1377370.0	761178.0	0.259196	0.593064
     29726.55	0.12055	1738014.0	1341651.0	741557.0	0.258842	0.592904
     29727.05	0.13452	1929173.0	1489116.0	823288.0	0.258909	0.592632
     29727.56	0.13115	1888823.0	1458010.0	805806.0	0.258881	0.592985
     29728.07	0.12422	1790226.0	1382010.0	764320.0	0.258803	0.592308
     29728.58	0.12554	1799829.0	1389321.0	768195.0	0.258877	0.592527
     29729.09	0.13195	1899509.0	1466318.0	810976.0	0.258841	0.592271
     29729.60	0.13414	1932678.0	1492090.0	825428.0	0.258729	0.592031
     29730.10	0.12356	1780989.0	1374783.0	760415.0	0.258873	0.592187
     29730.61	0.14162	2036954.0	1572773.0	870129.0	0.258615	0.591954
     29731.12	0.17426	2494272.0	1926225.0	1065964.0	0.258435	0.591683
     29731.63	0.15565	2240414.0	1730313.0	957413.0	0.258358	0.591823
     29732.14	0.10312	1481834.0	1144453.0	633459.0	0.258354	0.591487
     29732.65	0.084262	1211839.0	935892.0	518039.0	0.258394	0.591450
     29733.15	0.099670	1433688.0	1107105.0	612955.0	0.258502	0.591212
     29733.66	0.13202	1892348.0	1461477.0	809287.0	0.258371	0.591049
     29734.17	0.13239	1904585.0	1470917.0	814916.0	0.258378	0.590556
     29734.68	0.11522	1655080.0	1278313.0	708130.0	0.258308	0.590669
     29735.19	0.17590	2524569.0	1949780.0	1080512.0	0.258354	0.590282
     29735.70	0.16161	2319785.0	1791969.0	992861.0	0.258159	0.590480
     29736.21	0.070594	1010728.0	780435.0	432510.0	0.258575	0.590246
     29736.71	0.079336	1138327.0	879272.0	487408.0	0.258221	0.589993
     29737.22	0.095043	1359812.0	1050353.0	582345.0	0.258220	0.589819
     29737.73	0.12194	1746889.0	1349518.0	748302.0	0.258089	0.589696
     29738.24	0.12110	1739181.0	1343671.0	744822.0	0.258009	0.590015
     29738.75	0.15276	2196977.0	1697074.0	941139.0	0.258177	0.589570
     29739.26	0.16130	2305929.0	1781746.0	988005.0	0.257890	0.589661
     29739.77	0.099827	1429281.0	1104125.0	612302.0	0.258118	0.589583
     29740.28	0.064230	920048.0	710718.0	394331.0	0.258150	0.589085
     29740.78	0.10807	1544771.0	1193476.0	662225.0	0.258006	0.589020
     29741.29	0.13333	1881992.0	1454159.0	806849.0	0.257903	0.589046
     29741.80	0.12689	1817576.0	1404427.0	779570.0	0.257874	0.588642
     29742.31	0.13567	1935251.0	1495673.0	830421.0	0.257661	0.588399
     29742.82	0.14277	2040544.0	1576866.0	875326.0	0.257777	0.588598
     29743.33	0.12428	1775897.0	1372516.0	762005.0	0.257660	0.588448
     29743.84	0.13110	1861067.0	1438493.0	798932.0	0.257554	0.588075
     29744.35	0.11736	1667684.0	1288939.0	715918.0	0.257616	0.588009
     29744.86	0.13123	1862620.0	1439740.0	799702.0	0.257522	0.587979
     29745.36	0.12935	1832873.0	1416642.0	787055.0	0.257595	0.587746
     29745.87	0.12280	1757884.0	1358367.0	754749.0	0.257828	0.587653
     29746.38	0.13645	1943201.0	1502251.0	834977.0	0.257372	0.587316
     29746.89	0.14757	2103426.0	1626051.0	903860.0	0.257413	0.587235
     29747.40	0.15640	2230497.0	1723800.0	958120.0	0.257693	0.587313
     29747.91	0.10498	1490605.0	1152479.0	640799.0	0.257267	0.586955
     29748.42	0.11096	1589931.0	1229307.0	683294.0	0.257240	0.587281
     29748.93	0.13570	1935302.0	1495935.0	831999.0	0.257512	0.586675
     29749.44	0.14057	2007814.0	1552040.0	863409.0	0.257476	0.586437
     29749.95	0.12076	1692770.0	1308816.0	727966.0	0.257243	0.586624
     29750.45	0.14185	1997553.0	1544192.0	859055.0	0.257422	0.586423
     29750.96	0.13800	1951751.0	1508798.0	839502.0	0.257414	0.586260
     29751.47	0.13012	1832955.0	1417490.0	788484.0	0.257042	0.586531
     29751.98	0.097826	1389527.0	1074412.0	597830.0	0.257190	0.586222
     29752.49	0.13371	1899795.0	1469006.0	817628.0	0.257160	0.585934
     29753.00	0.13875	1975140.0	1527783.0	850709.0	0.256822	0.585503
     29753.51	0.11968	1697607.0	1312746.0	730726.0	0.257098	0.585838
     29754.02	0.12263	1741902.0	1347196.0	750114.0	0.256952	0.585555
     29754.53	0.13379	1900014.0	1469347.0	818110.0	0.257043	0.585577
     29755.04	0.11832	1690867.0	1307774.0	728131.0	0.256915	0.585601
     29755.55	0.13189	1879222.0	1453583.0	809279.0	0.256826	0.585643
     29756.06	0.11847	1690215.0	1306901.0	727887.0	0.257197	0.585268
     29756.57	0.11826	1682369.0	1301508.0	725033.0	0.256679	0.585062
     29757.07	0.12459	1772385.0	1371013.0	763648.0	0.256776	0.585198
     29757.58	0.12095	1721097.0	1331388.0	741482.0	0.256740	0.585326
     29758.09	0.11783	1671124.0	1292993.0	720342.0	0.256537	0.584989
     29758.60	0.11874	1692264.0	1309047.0	729376.0	0.256768	0.584865
     29759.11	0.12087	1718983.0	1329950.0	741438.0	0.256591	0.584305
     29759.62	0.11698	1660236.0	1284737.0	716471.0	0.256406	0.583972
     29760.13	0.12837	1822360.0	1410063.0	786307.0	0.256498	0.584042
     29760.64	0.12160	1730814.0	1339294.0	746521.0	0.256449	0.584474
     29761.15	0.12957	1847591.0	1429549.0	797139.0	0.256524	0.584085
     29761.66	0.12241	1747530.0	1352076.0	753920.0	0.256562	0.584110
     29762.17	0.13376	1911425.0	1479195.0	824687.0	0.256351	0.584249
     29762.68	0.13059	1861526.0	1440405.0	803322.0	0.256472	0.583924
     29763.19	0.12130	1714717.0	1327251.0	739983.0	0.256138	0.584238
     29763.70	0.12944	1847334.0	1429523.0	797356.0	0.256403	0.583795
     29764.21	0.13022	1863131.0	1441962.0	804453.0	0.256254	0.583597
     29764.72	0.13404	1906002.0	1474979.0	823362.0	0.256364	0.583003
     29765.23	0.11313	1608577.0	1245048.0	694704.0	0.256176	0.583444
     29765.74	0.12478	1775458.0	1373894.0	766730.0	0.256409	0.583270
     29766.25	0.12318	1756595.0	1360164.0	758936.0	0.255772	0.583443
     29766.76	0.12029	1707332.0	1321658.0	737633.0	0.256045	0.583196
     29767.26	0.13471	1919029.0	1485449.0	829245.0	0.256102	0.582957
     29767.77	0.12572	1796881.0	1390976.0	776488.0	0.256047	0.582980
     29768.28	0.13244	1886966.0	1460921.0	815580.0	0.255903	0.582923
     29768.79	0.13463	1917622.0	1484599.0	829045.0	0.255941	0.582626
     29769.30	0.13195	1880966.0	1456015.0	812679.0	0.256082	0.583122
     29769.81	0.12374	1765284.0	1366675.0	763427.0	0.255931	0.582319
     29770.32	0.13701	1949259.0	1509118.0	842866.0	0.255924	0.582473
     29770.83	0.12462	1771509.0	1371398.0	765923.0	0.256001	0.582504
     29771.34	0.13128	1868075.0	1446195.0	807846.0	0.255973	0.582320
     29771.85	0.12385	1758032.0	1360955.0	760502.0	0.256008	0.581963
     29772.36	0.13245	1887354.0	1461514.0	816337.0	0.255703	0.582401
     29772.87	0.12191	1738833.0	1346537.0	752401.0	0.255678	0.582022
     29773.38	0.12267	1741077.0	1348519.0	753439.0	0.255497	0.582114
     29773.89	0.12695	1787869.0	1384691.0	773459.0	0.255547	0.582360
     29774.40	0.13425	1903342.0	1473891.0	823910.0	0.255705	0.581600
     29774.91	0.12199	1721983.0	1333613.0	745375.0	0.255585	0.581760
     29775.42	0.098929	1397058.0	1081975.0	604790.0	0.255581	0.581662
     29775.93	0.11913	1689851.0	1308644.0	731499.0	0.255649	0.581651
     29776.44	0.12202	1730411.0	1340097.0	749358.0	0.255617	0.581280
     29776.95	0.10878	1537027.0	1190752.0	665556.0	0.255265	0.581718
     29777.46	0.11941	1687830.0	1307329.0	731206.0	0.255458	0.581046
     29777.97	0.11759	1672443.0	1295560.0	724755.0	0.255342	0.580865
     29778.48	0.11658	1662711.0	1287826.0	720227.0	0.255494	0.581144
     29778.99	0.12656	1797670.0	1392800.0	778979.0	0.255175	0.581087
     29779.50	0.10756	1518971.0	1176881.0	658178.0	0.255165	0.581148
     29780.01	0.11830	1671056.0	1294719.0	724166.0	0.255162	0.581028
     29780.52	0.13143	1865274.0	1445446.0	808746.0	0.254990	0.580688
     29781.03	0.12165	1726448.0	1337686.0	748475.0	0.255125	0.580659
     29781.54	0.12049	1706194.0	1321887.0	739563.0	0.255205	0.580756
     29782.05	0.14250	1989119.0	1541391.0	862300.0	0.255007	0.580837
     29782.56	0.14998	2094326.0	1623179.0	908211.0	0.254845	0.580665
     29783.07	0.11445	1605180.0	1243937.0	696070.0	0.254955	0.580586
     29783.58	0.12405	1740101.0	1348410.0	754813.0	0.255017	0.580211
     29784.09	0.12300	1739101.0	1347495.0	754209.0	0.255121	0.580333
     29784.60	0.13171	1864137.0	1445136.0	808890.0	0.254595	0.580296
     29785.12	0.12879	1823723.0	1413530.0	791197.0	0.254790	0.580298
     29785.63	0.13250	1877552.0	1455654.0	815114.0	0.254514	0.579883
     29786.14	0.13518	1909546.0	1480099.0	828820.0	0.254757	0.579861
     29786.65	0.12530	1776195.0	1376781.0	770809.0	0.254725	0.580063
     29787.16	0.12642	1790757.0	1388405.0	777660.0	0.254483	0.579621
     29787.67	0.13227	1873187.0	1451919.0	813259.0	0.254755	0.579592
     29788.18	0.13473	1904258.0	1476263.0	827056.0	0.254579	0.579397
     29788.69	0.13389	1889450.0	1465176.0	820606.0	0.254310	0.579688
     29789.20	0.13739	1943124.0	1506266.0	844022.0	0.254663	0.579210
     29789.71	0.13369	1891487.0	1466108.0	821715.0	0.254752	0.578973
     29790.22	0.12616	1771716.0	1373974.0	769966.0	0.254241	0.579116
     29790.73	0.13493	1908992.0	1480131.0	829109.0	0.254445	0.579534
     29791.24	0.11865	1677595.0	1300735.0	729254.0	0.254432	0.578663
     29791.75	0.13265	1877244.0	1456028.0	815982.0	0.254093	0.579075
     29792.26	0.13161	1854582.0	1438149.0	806178.0	0.254302	0.578808
     29792.77	0.11120	1559597.0	1209856.0	678212.0	0.253926	0.578797
     29793.28	0.12381	1749222.0	1356190.0	760309.0	0.254492	0.578710
     29793.79	0.12727	1800051.0	1395928.0	782886.0	0.254256	0.578328
     29794.30	0.11952	1692752.0	1312851.0	736177.0	0.254154	0.578486
     29794.81	0.13165	1852523.0	1436634.0	805899.0	0.254246	0.578100
     29795.32	0.12411	1754208.0	1360442.0	763058.0	0.254208	0.578231
     29795.84	0.11935	1693717.0	1313897.0	736983.0	0.253928	0.578188
     29796.35	0.12707	1802107.0	1397853.0	784349.0	0.254019	0.577839
     29796.86	0.11574	1640722.0	1272310.0	714022.0	0.254302	0.577676
     29797.37	0.13122	1847523.0	1432943.0	804006.0	0.254115	0.577879
     29797.88	0.11324	1605207.0	1245271.0	698542.0	0.253900	0.578113
     29798.39	0.12751	1799354.0	1395879.0	783269.0	0.253903	0.577803
     29798.90	0.11300	1596217.0	1238459.0	695209.0	0.253769	0.577411
     29799.41	0.12689	1796095.0	1393491.0	782050.0	0.253803	0.577649
     29799.92	0.12334	1744744.0	1353475.0	759850.0	0.253932	0.577310
     29800.43	0.11566	1640456.0	1272393.0	714350.0	0.254075	0.577282
     29800.94	0.13417	1901369.0	1475516.0	828431.0	0.253566	0.577229
     29801.45	0.12807	1807827.0	1403239.0	787740.0	0.253342	0.577370
     29801.97	0.12089	1701062.0	1319768.0	740997.0	0.253797	0.577215
     29802.48	0.13134	1860755.0	1444405.0	811695.0	0.253285	0.576328
     29802.99	0.14493	2037363.0	1581068.0	887754.0	0.253556	0.577161
     29803.50	0.11476	1615585.0	1253627.0	704146.0	0.253656	0.576811
     29804.01	0.12194	1715319.0	1331390.0	747897.0	0.253376	0.576714
     29804.52	0.12439	1748560.0	1357235.0	762603.0	0.253343	0.576467
     29805.03	0.11218	1586196.0	1231150.0	691707.0	0.253390	0.576542
     29805.54	0.13828	1947253.0	1511301.0	849704.0	0.253449	0.575838
     29806.05	0.13857	1950639.0	1514408.0	851198.0	0.253132	0.576135
     29806.56	0.14523	2052080.0	1592943.0	895676.0	0.253271	0.575760
     29807.07	0.13913	1962476.0	1523403.0	856526.0	0.253260	0.575817
     29807.59	0.083787	1184575.0	919710.0	516881.0	0.253081	0.576246
     29808.10	0.12355	1731862.0	1344391.0	755856.0	0.253256	0.575846
     29808.61	0.12417	1751416.0	1359308.0	764460.0	0.253449	0.575561
     29809.12	0.13745	1933760.0	1501399.0	844771.0	0.253069	0.575087
     29809.63	0.14142	1981456.0	1538431.0	865650.0	0.253069	0.575038
     29810.14	0.13409	1875090.0	1456370.0	819624.0	0.252710	0.574857
     29810.65	0.12982	1830977.0	1422038.0	800165.0	0.252759	0.575028
     29811.16	0.11909	1685251.0	1308710.0	736512.0	0.252873	0.574872
     29811.68	0.12593	1772315.0	1376210.0	774761.0	0.252953	0.574534
     29812.19	0.11855	1669613.0	1296383.0	729667.0	0.253014	0.574745
     29812.70	0.12597	1777232.0	1379931.0	776695.0	0.253024	0.574741
     29813.21	0.12409	1744568.0	1355027.0	763071.0	0.252686	0.574226
     29813.72	0.13868	1955691.0	1518777.0	855324.0	0.252838	0.574180
     29814.23	0.12933	1811358.0	1406908.0	792419.0	0.252682	0.574059
     29814.74	0.13548	1893880.0	1470950.0	828412.0	0.252719	0.574153
     29815.25	0.10336	1457596.0	1131956.0	637573.0	0.252841	0.574034
     29815.77	0.10841	1520094.0	1180443.0	664998.0	0.252882	0.573861
     29816.28	0.12634	1769664.0	1374206.0	774370.0	0.252914	0.573582
     29816.79	0.10881	1529331.0	1188197.0	669692.0	0.252393	0.573374
     29817.30	0.11737	1641444.0	1275192.0	718393.0	0.252480	0.573835
     29817.81	0.12861	1805269.0	1402493.0	790486.0	0.252458	0.573359
     29818.32	0.11701	1650324.0	1282299.0	722694.0	0.252317	0.573424
     29818.83	0.13146	1835705.0	1425924.0	804256.0	0.252609	0.572658
     29819.35	0.10102	1420992.0	1104022.0	622125.0	0.252395	0.573574
     29819.86	0.10735	1509060.0	1172491.0	661034.0	0.252356	0.573081
     29820.37	0.11255	1588018.0	1233755.0	695718.0	0.252424	0.572873
     29820.88	0.13221	1862551.0	1447217.0	815753.0	0.252305	0.573286
     29821.39	0.13387	1885080.0	1464949.0	826142.0	0.252150	0.572809
     29821.90	0.13704	1908463.0	1482960.0	836840.0	0.252258	0.572162
     29822.42	0.14038	1970106.0	1531024.0	863832.0	0.252151	0.572314
     29822.93	0.16380	2307932.0	1793828.0	1012066.0	0.252000	0.572358
     29823.44	0.096862	1368684.0	1064035.0	600247.0	0.251781	0.572482
     29823.95	0.10769	1515635.0	1178005.0	664737.0	0.252012	0.572186
     29824.46	0.13745	1926247.0	1496905.0	844897.0	0.252174	0.571940
     29824.97	0.12468	1751272.0	1361279.0	768426.0	0.251918	0.571836
     29825.49	0.12823	1795974.0	1396112.0	788083.0	0.251856	0.571843
     29826.00	0.13635	1899870.0	1476884.0	834122.0	0.251851	0.571310
     29826.51	0.13236	1856474.0	1442696.0	814500.0	0.252165	0.571694
     29827.02	0.12461	1739520.0	1352119.0	763857.0	0.251936	0.571048
     29827.53	0.13393	1869705.0	1453657.0	821004.0	0.251698	0.571310
     29828.04	0.13400	1879446.0	1461047.0	825877.0	0.251824	0.570463
     29828.56	0.13314	1853729.0	1441524.0	814240.0	0.251498	0.571201
     29829.07	0.12866	1786412.0	1388997.0	784908.0	0.251627	0.570771
     29829.58	0.12936	1817835.0	1412954.0	798880.0	0.251964	0.570227
     29830.09	0.13821	1936647.0	1505823.0	851088.0	0.251619	0.570579
     29830.60	0.13653	1909278.0	1484222.0	839005.0	0.251834	0.570429
     29831.11	0.12549	1755505.0	1364569.0	771502.0	0.251918	0.570255
     29831.63	0.11887	1664285.0	1294461.0	731911.0	0.251301	0.570191
     29832.14	0.12749	1782023.0	1385809.0	783568.0	0.251465	0.570182
     29832.65	0.12205	1707432.0	1327818.0	751234.0	0.251453	0.569575
     29833.16	0.12513	1749337.0	1360647.0	770235.0	0.251277	0.569020
     29833.67	0.12372	1720263.0	1337939.0	756996.0	0.251347	0.569528
     29834.19	0.13460	1883376.0	1464879.0	828837.0	0.251293	0.569504
     29834.70	0.12576	1760093.0	1369004.0	774819.0	0.251283	0.569209
     29835.21	0.12780	1799062.0	1399677.0	792021.0	0.251024	0.569409
     29835.72	0.11956	1667047.0	1296440.0	733557.0	0.251432	0.569472
     29836.23	0.11310	1580065.0	1228675.0	695828.0	0.251530	0.568589
     29836.75	0.12770	1789607.0	1391883.0	787933.0	0.251339	0.569000
     29837.26	0.11696	1640703.0	1276502.0	722696.0	0.251001	0.568890
     29837.77	0.12307	1730245.0	1346226.0	762265.0	0.250958	0.568766
     29838.28	0.12777	1783535.0	1387856.0	786325.0	0.250837	0.568145
     29838.80	0.11999	1680332.0	1307386.0	740507.0	0.250962	0.568450
     29839.31	0.11905	1661981.0	1293157.0	732671.0	0.250924	0.568145
     29839.82	0.12082	1696217.0	1319839.0	747528.0	0.250891	0.568493
     29840.33	0.12225	1715296.0	1334801.0	756707.0	0.250803	0.567561
     29840.84	0.11572	1627299.0	1266223.0	717242.0	0.250883	0.568380
     29841.36	0.12331	1727192.0	1343481.0	761646.0	0.251233	0.567537
     29841.87	0.13780	1924287.0	1497230.0	848720.0	0.250939	0.567643
     29842.38	0.12417	1739526.0	1353475.0	767671.0	0.250937	0.567069
     29842.89	0.13799	1924976.0	1497949.0	849357.0	0.250817	0.567373
     29843.41	0.11344	1587369.0	1235579.0	700649.0	0.250538	0.567288
     29843.92	0.13149	1818675.0	1415193.0	802716.0	0.250842	0.567020
     29844.43	0.13633	1904846.0	1482395.0	840966.0	0.250742	0.566863
     29844.94	0.11848	1662051.0	1293622.0	733791.0	0.250606	0.566977
     29845.46	0.12781	1790304.0	1393635.0	790497.0	0.250470	0.567009
     29845.97	0.12194	1714699.0	1334943.0	757263.0	0.250349	0.566933
     29846.48	0.12970	1804710.0	1404848.0	797614.0	0.250471	0.566060
     29846.99	0.12205	1707401.0	1329215.0	754301.0	0.250384	0.566552
     29847.50	0.12555	1752708.0	1364805.0	775069.0	0.250150	0.565815
     29848.02	0.12350	1722157.0	1340765.0	760960.0	0.250337	0.566415
     29848.53	0.13744	1917722.0	1492682.0	847427.0	0.250564	0.566125
     29849.04	0.12177	1691576.0	1316965.0	747668.0	0.250331	0.566126
     29849.56	0.12463	1737114.0	1352628.0	768195.0	0.250176	0.565761
     29850.07	0.14048	1955905.0	1522868.0	864845.0	0.250258	0.565800
     29850.58	0.13241	1849847.0	1440240.0	818232.0	0.250293	0.565419
     29851.09	0.11935	1661493.0	1293745.0	734934.0	0.250175	0.565516
     29851.61	0.13813	1936648.0	1508419.0	856987.0	0.249897	0.565395
     29852.12	0.12967	1806720.0	1407131.0	799290.0	0.249960	0.565584
     29852.63	0.11358	1595101.0	1241997.0	705910.0	0.250216	0.564988
     29853.14	0.13215	1853978.0	1443814.0	820655.0	0.250045	0.564941
     29853.66	0.12452	1736508.0	1352147.0	768637.0	0.250183	0.564830
     29854.17	0.12826	1785456.0	1390630.0	790669.0	0.249917	0.564633
     29854.68	0.12810	1789899.0	1393964.0	792803.0	0.250008	0.564332
     29855.19	0.12343	1716422.0	1336715.0	760319.0	0.250027	0.564232
     29855.71	0.12196	1712064.0	1333411.0	758384.0	0.249959	0.564306
     29856.22	0.11804	1641384.0	1278699.0	727259.0	0.249697	0.564316
     29856.73	0.12227	1712761.0	1334566.0	759060.0	0.249501	0.564281
     29857.25	0.12346	1719528.0	1339494.0	762052.0	0.249758	0.564032
     29857.76	0.11202	1560615.0	1215529.0	691398.0	0.249901	0.564219
     29858.27	0.11268	1575352.0	1226872.0	698482.0	0.250011	0.563314
     29858.78	0.11429	1586978.0	1236474.0	703612.0	0.249568	0.563792
     29859.30	0.12164	1695335.0	1321212.0	751730.0	0.249331	0.563928
     29859.81	0.13037	1821353.0	1419016.0	807497.0	0.249616	0.563780
     29860.32	0.10702	1494815.0	1164648.0	662678.0	0.249584	0.563885
     29860.84	0.11661	1630736.0	1270686.0	723350.0	0.249475	0.563419
     29861.35	0.12062	1667616.0	1299509.0	740170.0	0.249409	0.562862
     29861.86	0.12861	1787837.0	1392756.0	792910.0	0.249722	0.563330
     29862.37	0.13079	1829621.0	1425715.0	811674.0	0.249435	0.563330
     29862.89	0.13083	1805572.0	1406992.0	801641.0	0.249423	0.562548
     29863.40	0.13084	1801833.0	1404262.0	799869.0	0.249293	0.562819
     29863.91	0.13013	1798885.0	1401907.0	798856.0	0.249334	0.562408
     29864.43	0.13221	1832362.0	1428296.0	813631.0	0.249124	0.562730
     29864.94	0.12294	1690657.0	1317976.0	751064.0	0.249020	0.562362
     29865.45	0.13397	1856411.0	1446762.0	824353.0	0.249317	0.562484
     29865.97	0.14130	1962728.0	1529961.0	872269.0	0.249093	0.561900
     29866.48	0.11422	1580299.0	1231880.0	702145.0	0.249073	0.562157
     29866.99	0.13782	1905383.0	1485812.0	846897.0	0.248722	0.562138
     29867.50	0.12033	1673299.0	1304503.0	743514.0	0.248975	0.562190
     29868.02	0.12886	1792777.0	1397722.0	797063.0	0.248922	0.561665
     29868.53	0.13156	1841509.0	1435881.0	818830.0	0.248807	0.561657
     29869.04	0.13448	1872654.0	1460093.0	832607.0	0.248857	0.561694
     29869.56	0.13241	1852708.0	1445073.0	824398.0	0.248489	0.561262
     29870.07	0.13340	1858004.0	1448471.0	826195.0	0.248994	0.561433
     29870.58	0.13815	1929927.0	1504896.0	858848.0	0.248758	0.560887
     29871.10	0.13125	1820804.0	1419293.0	809913.0	0.249119	0.560987
     29871.61	0.13347	1869739.0	1457924.0	831931.0	0.248785	0.561019
     29872.12	0.12274	1710696.0	1334069.0	761068.0	0.248667	0.561266
     29872.64	0.12720	1780076.0	1388337.0	792607.0	0.248549	0.560534
     29873.15	0.12707	1772180.0	1382072.0	788963.0	0.248627	0.560620
     29873.66	0.12167	1707082.0	1331552.0	759878.0	0.248440	0.560943
     29874.18	0.12589	1763142.0	1374830.0	784678.0	0.248767	0.560812
     29874.69	0.12750	1778019.0	1386653.0	791553.0	0.248607	0.560651
     29875.20	0.12113	1700593.0	1326641.0	757335.0	0.248327	0.560600
     29875.72	0.12583	1753306.0	1367517.0	780850.0	0.248506	0.560369
     29876.23	0.12820	1795989.0	1401301.0	800090.0	0.248155	0.560432
     29876.74	0.11978	1683666.0	1313222.0	749749.0	0.248490	0.560500
     29877.26	0.12750	1785352.0	1393235.0	795227.0	0.247987	0.560756
     29877.77	0.12184	1711161.0	1334854.0	762698.0	0.248350	0.559715
     29878.29	0.12716	1781893.0	1390439.0	794422.0	0.248057	0.559760
     29878.80	0.12110	1698425.0	1325516.0	757127.0	0.247900	0.560026
     29879.31	0.12294	1727004.0	1347310.0	769932.0	0.248278	0.559563
     29879.83	0.11519	1617155.0	1261641.0	721316.0	0.248255	0.559091
     29880.34	0.12671	1777913.0	1387311.0	792795.0	0.248073	0.559558
     29880.85	0.11774	1650873.0	1288352.0	736503.0	0.247940	0.559206
     29881.37	0.12147	1702808.0	1328512.0	759763.0	0.248219	0.558808
     29881.88	0.11231	1576491.0	1230227.0	703409.0	0.248003	0.559015
     29882.39	0.13897	1945308.0	1517755.0	868015.0	0.248188	0.558779
     29882.91	0.11868	1666330.0	1299855.0	743380.0	0.248371	0.558801
     29883.42	0.13031	1827025.0	1425965.0	815721.0	0.247840	0.558532
     29883.94	0.13781	1925858.0	1503162.0	859707.0	0.247801	0.558735
     29884.45	0.12643	1773187.0	1383798.0	791297.0	0.247947	0.558914
     29884.96	0.13446	1879062.0	1466701.0	838994.0	0.247757	0.558567
     29885.48	0.12294	1721524.0	1343936.0	769247.0	0.247607	0.557946
     29885.99	0.11918	1670808.0	1304210.0	746080.0	0.247710	0.558520
     29886.50	0.12398	1738104.0	1356618.0	776822.0	0.247800	0.557539
     29887.02	0.12965	1817601.0	1418876.0	812062.0	0.247652	0.558044
     29887.53	0.12748	1785241.0	1393418.0	797229.0	0.247794	0.558373
     29888.05	0.12611	1768716.0	1380726.0	790375.0	0.247644	0.557857
     29888.56	0.12393	1727919.0	1349010.0	771995.0	0.247547	0.558148
     29889.07	0.12219	1705952.0	1331848.0	762337.0	0.247556	0.557934
     29889.59	0.12167	1706002.0	1332210.0	762849.0	0.247313	0.557534
     29890.10	0.13457	1881073.0	1468408.0	840827.0	0.247664	0.557548
     29890.62	0.13100	1817231.0	1418950.0	812608.0	0.247397	0.557424
     29891.13	0.12096	1679776.0	1312085.0	751338.0	0.247043	0.557517
     29891.64	0.13674	1898301.0	1482190.0	849170.0	0.247439	0.557017
     29892.16	0.13377	1847370.0	1442626.0	826556.0	0.247298	0.556953
     29892.67	0.14478	2023358.0	1580193.0	905064.0	0.247212	0.557297
     29893.19	0.10733	1495038.0	1167392.0	669109.0	0.247379	0.556581
     29893.70	0.12776	1781958.0	1391351.0	797367.0	0.247438	0.556715
     29894.21	0.12496	1746477.0	1363716.0	781669.0	0.247387	0.556537
     29894.73	0.13375	1865743.0	1457093.0	835220.0	0.247216	0.556503
     29895.24	0.12210	1705556.0	1332277.0	763797.0	0.247002	0.556343
     29895.76	0.13056	1821900.0	1423500.0	815977.0	0.246761	0.556488
     29896.27	0.13013	1815500.0	1418095.0	813070.0	0.247046	0.556252
     29896.78	0.14675	2037471.0	1591400.0	912404.0	0.247095	0.556287
     29897.30	0.099783	1372241.0	1071942.0	614509.0	0.246973	0.556404
     29897.81	0.11198	1559002.0	1217698.0	698552.0	0.247084	0.555708
     29898.33	0.11819	1650520.0	1289521.0	739576.0	0.246820	0.555949
     29898.84	0.12900	1802087.0	1407917.0	807568.0	0.246834	0.555839
     29899.36	0.12526	1739858.0	1359239.0	779898.0	0.246879	0.555517
     29899.87	0.12027	1671582.0	1305900.0	748894.0	0.246878	0.556050
     29900.38	0.10838	1507012.0	1177678.0	675647.0	0.246584	0.555629
     29900.90	0.13723	1907960.0	1491056.0	855948.0	0.246550	0.555030
     29901.41	0.099013	1380148.0	1078337.0	618545.0	0.246771	0.555805
     29901.93	0.096344	1345585.0	1051533.0	603464.0	0.246580	0.555318
     29902.44	0.13425	1859180.0	1453127.0	834244.0	0.246418	0.554947
     29902.96	0.11392	1584544.0	1238303.0	710971.0	0.246555	0.554866
     29903.47	0.12401	1731052.0	1353077.0	776814.0	0.246348	0.554936
     29903.98	0.13835	1926367.0	1505141.0	864203.0	0.246749	0.554834
     29904.50	0.11993	1668157.0	1303816.0	748500.0	0.246424	0.554979
     29905.01	0.13870	1921838.0	1502056.0	862889.0	0.246447	0.554304
     29905.53	0.12970	1806027.0	1411527.0	810498.0	0.246457	0.554779
     29906.04	0.11722	1631198.0	1275080.0	732865.0	0.246306	0.553803
     29906.56	0.14750	2055569.0	1606992.0	923424.0	0.246189	0.554031
     29907.07	0.12778	1775544.0	1388058.0	797549.0	0.246201	0.554118
     29907.59	0.11951	1651081.0	1290911.0	741444.0	0.246082	0.554504
     29908.10	0.13150	1823635.0	1425742.0	819407.0	0.246139	0.553867
     29908.62	0.13545	1874780.0	1465304.0	842072.0	0.246429	0.553952
     29909.13	0.17258	2385844.0	1865610.0	1071739.0	0.245965	0.554306
     29909.64	0.11136	1542587.0	1206088.0	693127.0	0.246079	0.553924
     29910.16	0.10734	1461429.0	1142760.0	656975.0	0.245968	0.553556
     29910.67	0.11478	1583417.0	1237944.0	711638.0	0.246133	0.553638
     29911.19	0.12992	1784488.0	1394716.0	802117.0	0.246441	0.553192
     29911.70	0.13971	1930668.0	1509854.0	868263.0	0.245853	0.553274
     29912.22	0.13156	1815308.0	1419719.0	816427.0	0.245796	0.553277
     29912.73	0.13527	1864060.0	1457847.0	838554.0	0.245796	0.553037
     29913.25	0.12846	1775286.0	1388315.0	798692.0	0.245871	0.552871
     29913.76	0.13377	1848115.0	1445318.0	831183.0	0.245837	0.553235
     29914.28	0.12232	1694496.0	1325642.0	762527.0	0.245488	0.553014
     29914.79	0.12659	1750761.0	1369323.0	788090.0	0.245734	0.552459
     29915.31	0.13241	1830341.0	1431385.0	823513.0	0.245860	0.552818
     29915.82	0.12259	1678347.0	1312949.0	755663.0	0.245534	0.552436
     29916.34	0.13596	1874805.0	1466519.0	844153.0	0.245613	0.552313
     29916.85	0.11267	1563167.0	1222446.0	703757.0	0.245860	0.552176
     29917.37	0.13019	1795556.0	1404589.0	808760.0	0.245570	0.551998
     29917.88	0.13429	1864374.0	1458093.0	839441.0	0.245796	0.552149
     29918.40	0.10384	1438232.0	1125363.0	648108.0	0.245309	0.551804
     29918.91	0.13136	1821664.0	1425350.0	820728.0	0.245333	0.551981
     29919.43	0.12641	1750634.0	1369674.0	788444.0	0.245405	0.552267
     29919.94	0.11927	1647247.0	1288934.0	742408.0	0.245290	0.551672
     29920.46	0.11703	1622799.0	1269449.0	731397.0	0.245569	0.551382
     29920.97	0.13604	1867702.0	1461482.0	841993.0	0.245258	0.551435
     29921.49	0.11779	1628629.0	1274137.0	734226.0	0.245469	0.551207
     29922.00	0.11102	1532166.0	1198938.0	690929.0	0.245246	0.551154
     29922.52	0.13148	1821521.0	1425210.0	820994.0	0.245353	0.551559
     29923.03	0.11097	1541780.0	1206320.0	695185.0	0.245363	0.551152
     29923.55	0.12425	1723986.0	1349120.0	777564.0	0.245187	0.551042
     29924.06	0.12840	1779584.0	1392507.0	802766.0	0.245274	0.550798
     29924.58	0.13056	1798871.0	1407845.0	811743.0	0.245099	0.550632
     29925.09	0.12410	1711016.0	1339140.0	772098.0	0.245060	0.550671
     29925.61	0.13342	1843998.0	1443174.0	832305.0	0.245091	0.550401
     29926.12	0.12841	1775725.0	1389676.0	801260.0	0.245138	0.550640
     29926.64	0.12360	1708733.0	1337651.0	771311.0	0.244837	0.550579
     29927.15	0.13079	1816752.0	1422041.0	819873.0	0.244957	0.550699
     29927.67	0.13017	1801211.0	1410335.0	813445.0	0.244632	0.550304
     29928.18	0.12434	1724997.0	1350573.0	778956.0	0.244696	0.550330
     29928.70	0.11614	1606837.0	1258158.0	725750.0	0.244619	0.550198
     29929.21	0.12977	1798578.0	1407970.0	812139.0	0.244847	0.550233
     29929.73	0.11455	1584448.0	1240633.0	715848.0	0.244614	0.549909
     29930.24	0.12526	1733316.0	1357595.0	783396.0	0.244322	0.549832
     29930.76	0.13045	1802522.0	1411163.0	814295.0	0.244773	0.549847
     29931.27	0.12725	1761382.0	1379124.0	796048.0	0.244650	0.549544
     29931.79	0.12600	1752663.0	1371858.0	791841.0	0.244970	0.549561
     29932.31	0.12682	1762012.0	1379922.0	796833.0	0.244429	0.549137
     29932.82	0.13618	1883536.0	1474927.0	851666.0	0.244542	0.549169
     29933.34	0.12761	1765220.0	1382312.0	798164.0	0.244518	0.549199
     29933.85	0.12481	1737535.0	1360861.0	785775.0	0.244350	0.549202
     29934.37	0.13337	1851597.0	1450221.0	837478.0	0.244333	0.549076
     29934.88	0.12763	1760075.0	1378496.0	796533.0	0.244363	0.548480
     29935.40	0.12700	1766998.0	1383708.0	799664.0	0.244515	0.548330
     29935.91	0.13378	1849498.0	1448580.0	836694.0	0.244330	0.548881
     29936.43	0.13350	1840452.0	1442039.0	833193.0	0.243953	0.548548
     29936.94	0.11897	1644598.0	1288016.0	744191.0	0.244393	0.548561
     29937.46	0.12778	1768435.0	1385266.0	801043.0	0.244203	0.547733
     29937.98	0.12200	1689749.0	1323820.0	765200.0	0.244059	0.548140
     29938.49	0.12417	1719174.0	1346629.0	778621.0	0.244240	0.547835
     29939.01	0.12662	1755439.0	1375444.0	795313.0	0.243942	0.547796
     29939.52	0.12034	1668828.0	1307695.0	756133.0	0.243856	0.547804
     29940.04	0.11866	1643491.0	1287761.0	744776.0	0.243918	0.547577
     29940.55	0.12121	1678370.0	1314695.0	760383.0	0.244218	0.547538
     29941.07	0.11512	1582584.0	1239948.0	717161.0	0.243990	0.547524
     29941.59	0.11662	1609126.0	1260931.0	729636.0	0.243841	0.547060
     29942.10	0.11424	1564296.0	1225628.0	709110.0	0.243983	0.547198
     29942.62	0.11785	1621820.0	1270901.0	735483.0	0.243823	0.546954
     29943.13	0.11528	1587078.0	1243760.0	719372.0	0.243756	0.547516
     29943.65	0.11417	1580929.0	1239294.0	717284.0	0.243471	0.546825
     29944.16	0.11567	1598095.0	1252897.0	724995.0	0.243354	0.547049
     29944.68	0.12150	1683897.0	1319721.0	764056.0	0.243690	0.546535
     29945.20	0.13437	1845422.0	1446629.0	837642.0	0.243472	0.546400
     29945.71	0.12525	1730187.0	1356324.0	785394.0	0.243451	0.546348
     29946.23	0.12736	1745308.0	1368137.0	791925.0	0.243481	0.546739
     29946.74	0.13766	1906199.0	1494024.0	865144.0	0.243638	0.546332
     29947.26	0.11591	1597413.0	1251938.0	725483.0	0.243693	0.545610
     29947.78	0.12614	1742625.0	1366127.0	791155.0	0.243413	0.546241
     29948.29	0.16071	2218160.0	1739097.0	1007529.0	0.243312	0.545865
     29948.81	0.11822	1629996.0	1277929.0	740104.0	0.243337	0.546205
     29949.32	0.11581	1597603.0	1252270.0	725561.0	0.243546	0.545768
     29949.84	0.13818	1908209.0	1495569.0	866602.0	0.243658	0.545682
     29950.36	0.12250	1683581.0	1319653.0	765077.0	0.243554	0.545148
     29950.87	0.13194	1825265.0	1431431.0	829440.0	0.243051	0.545679
     29951.39	0.12855	1773861.0	1390764.0	806351.0	0.243305	0.545089
     29951.90	0.12981	1796122.0	1408496.0	816212.0	0.243107	0.545604
     29952.42	0.13257	1824913.0	1431447.0	829564.0	0.242846	0.545541
     29952.94	0.13757	1893952.0	1485600.0	861018.0	0.242847	0.545459
     29953.45	0.12153	1682386.0	1319567.0	765070.0	0.242909	0.545092
     29953.97	0.13797	1899910.0	1489880.0	863773.0	0.243111	0.545141
     29954.48	0.13290	1836815.0	1440534.0	835289.0	0.243019	0.544991
     29955.00	0.12868	1779126.0	1395009.0	809071.0	0.243221	0.544769
     29955.52	0.13269	1832947.0	1437918.0	834080.0	0.242729	0.544622
     29956.03	0.12927	1775233.0	1392638.0	808035.0	0.242732	0.544350
     29956.55	0.12028	1664423.0	1305512.0	757711.0	0.242883	0.544049
     29957.07	0.13034	1790763.0	1404635.0	815277.0	0.242864	0.544005
     29957.58	0.12721	1748589.0	1371752.0	796289.0	0.242720	0.543882
     29958.10	0.11554	1593766.0	1250193.0	725750.0	0.242802	0.543848
     29958.61	0.13870	1903536.0	1493373.0	867219.0	0.242676	0.543501
     29959.13	0.11739	1617946.0	1269402.0	736945.0	0.242612	0.543788
     29959.65	0.11585	1594223.0	1250860.0	726176.0	0.242555	0.543794
     29960.16	0.12905	1756217.0	1377671.0	800282.0	0.242768	0.543186
     29960.68	0.12800	1762175.0	1382334.0	802604.0	0.242775	0.543667
     29961.20	0.12500	1721960.0	1351172.0	784845.0	0.242491	0.543241
     29961.71	0.11997	1651758.0	1296270.0	752816.0	0.242349	0.543425
     29962.23	0.13329	1835430.0	1440614.0	836864.0	0.242209	0.543163
     29962.75	0.10935	1499457.0	1176524.0	683465.0	0.242539	0.543144
     29963.26	0.12281	1691998.0	1327607.0	771085.0	0.242532	0.543335
     29963.78	0.12446	1711156.0	1342824.0	780068.0	0.242394	0.543149
     29964.30	0.11771	1608733.0	1262442.0	733786.0	0.242399	0.542586
     29964.81	0.12028	1648835.0	1293985.0	751917.0	0.242342	0.542856
     29965.33	0.12007	1650074.0	1295262.0	752820.0	0.242107	0.542642
     29965.84	0.12277	1685525.0	1322795.0	768885.0	0.242330	0.542561
     29966.36	0.12925	1767111.0	1387296.0	806200.0	0.241989	0.542780
     29966.88	0.13124	1808928.0	1420346.0	825802.0	0.241834	0.542301
     29967.39	0.12636	1741943.0	1367427.0	795000.0	0.242070	0.542344
     29967.91	0.11840	1628673.0	1279015.0	743664.0	0.241675	0.542256
     29968.43	0.13465	1851011.0	1452911.0	844938.0	0.242163	0.542061
     29968.94	0.12384	1703737.0	1337466.0	777862.0	0.242047	0.541983
     29969.46	0.12626	1723671.0	1353079.0	787268.0	0.242074	0.541569
     29969.98	0.13356	1837547.0	1442657.0	839162.0	0.241945	0.541838
     29970.49	0.11863	1633150.0	1281960.0	746115.0	0.242121	0.541266
     29971.01	0.13906	1907057.0	1497399.0	871015.0	0.241832	0.541826
     29971.53	0.14495	1998100.0	1569309.0	913464.0	0.241561	0.541147
     29972.04	0.093316	1276903.0	1002892.0	583548.0	0.241550	0.541516
     29972.56	0.11129	1515154.0	1189842.0	691924.0	0.241697	0.542100
     29973.08	0.13544	1853251.0	1455565.0	847144.0	0.241547	0.541279
     29973.60	0.12543	1722252.0	1352820.0	787482.0	0.241441	0.541106
     29974.11	0.13069	1796235.0	1410777.0	821403.0	0.241552	0.540882
     29974.63	0.13340	1824313.0	1432924.0	834382.0	0.241486	0.540781
     29975.15	0.14392	1977443.0	1553115.0	904426.0	0.241542	0.540717
     29975.66	0.14355	1962406.0	1541170.0	897161.0	0.241629	0.541062
     29976.18	0.094331	1292191.0	1014987.0	591101.0	0.241463	0.540644
     29976.70	0.13068	1791649.0	1407606.0	819655.0	0.241246	0.540762
     29977.21	0.13575	1861858.0	1462584.0	851912.0	0.241370	0.540477
     29977.73	0.12521	1713528.0	1346285.0	784265.0	0.241205	0.540357
     29978.25	0.12836	1762150.0	1384505.0	806630.0	0.241192	0.540233
     29978.76	0.13307	1831011.0	1438436.0	838120.0	0.241312	0.540150
     29979.28	0.13055	1791049.0	1407227.0	820256.0	0.241180	0.539760
     29979.80	0.16995	2322588.0	1824695.0	1064016.0	0.241269	0.539362
     29980.32	0.12929	1764428.0	1386344.0	807867.0	0.241156	0.540028
     29980.83	0.091870	1259546.0	989749.0	577064.0	0.241055	0.539498
     29981.35	0.088964	1218899.0	957957.0	558535.0	0.240900	0.539486
     29981.87	0.11823	1617667.0	1271290.0	741330.0	0.240953	0.539342
     29982.38	0.13622	1851120.0	1454540.0	848455.0	0.241101	0.539028
     29982.90	0.13239	1810424.0	1422819.0	829923.0	0.240921	0.539062
     29983.42	0.10813	1469805.0	1155295.0	673911.0	0.240774	0.539013
     29983.94	0.16254	2219109.0	1743787.0	1017325.0	0.241047	0.538883
     29984.45	0.082604	1112122.0	874291.0	509766.0	0.240612	0.539461
     29984.97	0.090709	1234177.0	970011.0	565698.0	0.240852	0.539247
     29985.49	0.11366	1557420.0	1223918.0	714283.0	0.240973	0.538533
     29986.00	0.11619	1586017.0	1246645.0	727219.0	0.240770	0.538984
     29986.52	0.11588	1590060.0	1249483.0	728956.0	0.241042	0.538872
     29987.04	0.13459	1842462.0	1448571.0	845383.0	0.240525	0.538543
     29987.56	0.16443	2247405.0	1766216.0	1030881.0	0.240937	0.538426
     29988.07	0.16744	2298475.0	1806885.0	1055126.0	0.240641	0.537944
     29988.59	0.076331	1040636.0	818478.0	477884.0	0.240141	0.538078
     29989.11	0.11298	1551191.0	1219319.0	711955.0	0.240731	0.538033
     29989.63	0.12682	1734311.0	1363526.0	795945.0	0.240536	0.538299
     29990.14	0.12452	1708862.0	1343540.0	784442.0	0.240520	0.538091
     29990.66	0.13318	1821493.0	1432214.0	836489.0	0.240435	0.537763
     29991.18	0.13137	1799216.0	1414720.0	826053.0	0.240419	0.538028
     29991.70	0.12949	1775744.0	1396252.0	815637.0	0.240428	0.537577
     29992.21	0.19433	2642194.0	2077427.0	1213962.0	0.240480	0.537241
     29992.73	0.093342	1282819.0	1008622.0	589191.0	0.240475	0.537590
     29993.25	0.095032	1304641.0	1025999.0	599576.0	0.240261	0.537199
     29993.77	0.12179	1672479.0	1315316.0	768628.0	0.240230	0.537225
     29994.28	0.13645	1861770.0	1464312.0	855591.0	0.240142	0.537348
     29994.80	0.13933	1908174.0	1501086.0	876807.0	0.239958	0.537657
     29995.32	0.13520	1848016.0	1453153.0	849184.0	0.240377	0.537215
     29995.84	0.18662	2530912.0	1990129.0	1163653.0	0.240380	0.536635
     29996.35	0.13204	1799590.0	1415452.0	827305.0	0.240110	0.537031
     29996.87	0.077370	1037840.0	816430.0	477431.0	0.239956	0.536522
     29997.39	0.11524	1550135.0	1219333.0	713097.0	0.240038	0.536442
     29997.91	0.13112	1772355.0	1394343.0	815910.0	0.239886	0.535875
     29998.42	0.13301	1802667.0	1418168.0	829596.0	0.239901	0.536182
     29998.94	0.12856	1750011.0	1376989.0	805424.0	0.239723	0.536286
     29999.46	0.12719	1731887.0	1362495.0	796954.0	0.239894	0.536276
     29999.98	0.11821	1621308.0	1275370.0	745840.0	0.239997	0.536481
     30000.50	0.12306	1687705.0	1327859.0	776932.0	0.239802	0.535970
     30001.01	0.12624	1721981.0	1355105.0	792969.0	0.239596	0.535850
     30001.53	0.12190	1666096.0	1310679.0	766882.0	0.239938	0.535968
     30002.05	0.12265	1677392.0	1319377.0	771979.0	0.240081	0.535958
     30002.57	0.13088	1791619.0	1409782.0	824919.0	0.239685	0.535905
     30003.08	0.11830	1607003.0	1265023.0	740152.0	0.239281	0.535990
     30003.60	0.12327	1688682.0	1329053.0	777629.0	0.239482	0.535972
     30004.12	0.12080	1644465.0	1294041.0	757416.0	0.239645	0.535613
     30004.64	0.11377	1549591.0	1219715.0	714009.0	0.239374	0.535477
     30005.16	0.12364	1685253.0	1326302.0	776425.0	0.239521	0.535450
     30005.67	0.12148	1658148.0	1305465.0	764181.0	0.239142	0.535510
     30006.19	0.12220	1657618.0	1304844.0	764463.0	0.239298	0.534665
     30006.71	0.12252	1667772.0	1312642.0	769122.0	0.239447	0.534548
     30007.23	0.12107	1645895.0	1295561.0	758700.0	0.239341	0.535093
     30007.75	0.12639	1709975.0	1345791.0	788597.0	0.239497	0.534482
     30008.26	0.12612	1712904.0	1348130.0	789763.0	0.239472	0.534741
     30008.78	0.13037	1762489.0	1387267.0	812989.0	0.239391	0.534373
     30009.30	0.13049	1775551.0	1397878.0	819167.0	0.239155	0.534423
     30009.82	0.12765	1731345.0	1363334.0	798817.0	0.238965	0.534557
     30010.34	0.13466	1847760.0	1454738.0	852668.0	0.239148	0.534211
     30010.86	0.12678	1727844.0	1360737.0	797106.0	0.238848	0.534794
     30011.37	0.12385	1693329.0	1333484.0	781580.0	0.238901	0.534233
     30011.89	0.11926	1633626.0	1286294.0	753951.0	0.239037	0.534193
     30012.41	0.12498	1712130.0	1348061.0	790034.0	0.239071	0.534347
     30012.93	0.12321	1664632.0	1311084.0	768656.0	0.238750	0.533966
     30013.45	0.12559	1718800.0	1353770.0	793925.0	0.238733	0.533660
     30013.96	0.12082	1646036.0	1296217.0	760093.0	0.238920	0.533765
     30014.48	0.13312	1805243.0	1421803.0	833496.0	0.238769	0.534052
     30015.00	0.12686	1723811.0	1357813.0	796055.0	0.238662	0.533962
     30015.52	0.12968	1764032.0	1389541.0	815481.0	0.238629	0.532951
     30016.04	0.13237	1805328.0	1421436.0	833674.0	0.239075	0.533580
     30016.56	0.12642	1716447.0	1351928.0	793194.0	0.238725	0.533219
     30017.07	0.13302	1805916.0	1422393.0	834799.0	0.238727	0.532905
     30017.59	0.12990	1767495.0	1392149.0	816964.0	0.238715	0.533009
     30018.11	0.12548	1698621.0	1338259.0	785485.0	0.238447	0.532823
     30018.63	0.12707	1729303.0	1362195.0	799453.0	0.238621	0.532925
     30019.15	0.13050	1769794.0	1394215.0	818211.0	0.238532	0.532967
     30019.67	0.13549	1841973.0	1451013.0	851814.0	0.238575	0.532649
     30020.18	0.12187	1653752.0	1302775.0	764922.0	0.238550	0.532478
     30020.70	0.12560	1703793.0	1342370.0	788363.0	0.238420	0.532233
     30021.22	0.11473	1568691.0	1235943.0	725416.0	0.238407	0.532844
     30021.74	0.12456	1695406.0	1335762.0	784164.0	0.238420	0.532639
     30022.26	0.13000	1767836.0	1392707.0	818090.0	0.238507	0.532032
     30022.78	0.12001	1631688.0	1286199.0	755389.0	0.237924	0.532214
     30023.30	0.11837	1611103.0	1269156.0	745622.0	0.238567	0.531889
     30023.81	0.11942	1629122.0	1284197.0	754545.0	0.237908	0.531774
     30024.33	0.13133	1787740.0	1408676.0	827672.0	0.238302	0.531789
     30024.85	0.11262	1515626.0	1194706.0	701913.0	0.237928	0.531846
     30025.37	0.093049	1264661.0	996777.0	585748.0	0.238032	0.531637
     30025.89	0.11821	1605081.0	1264836.0	743501.0	0.238232	0.531328
     30026.41	0.11413	1550725.0	1222314.0	718762.0	0.237977	0.530971
     30026.93	0.11624	1571823.0	1238825.0	728331.0	0.238073	0.531163
     30027.44	0.12945	1758748.0	1386227.0	814961.0	0.238017	0.531201
     30027.96	0.12625	1709268.0	1347131.0	792064.0	0.238088	0.531090
     30028.48	0.14288	1938734.0	1528422.0	898663.0	0.237799	0.531083
     30029.00	0.12975	1763907.0	1390061.0	817397.0	0.238184	0.530978
     30029.52	0.10473	1430941.0	1128220.0	663549.0	0.237691	0.530794
     30030.04	0.14342	1940342.0	1529512.0	899650.0	0.237916	0.530698
     30030.56	0.13477	1831560.0	1444209.0	849511.0	0.237606	0.530656
     30031.08	0.13531	1844078.0	1453741.0	855240.0	0.237839	0.530513
     30031.60	0.12228	1653405.0	1303577.0	766975.0	0.237725	0.530413
     30032.11	0.14543	1957744.0	1543596.0	908447.0	0.237678	0.530133
     30032.63	0.14822	2008188.0	1583361.0	932012.0	0.237683	0.529959
     30033.15	0.099816	1360175.0	1072695.0	631295.0	0.237439	0.530156
     30033.67	0.10762	1451734.0	1144393.0	673725.0	0.237884	0.529808
     30034.19	0.13322	1810094.0	1427375.0	840342.0	0.237542	0.529783
     30034.71	0.13895	1884784.0	1486631.0	875313.0	0.237301	0.529686
     30035.23	0.13398	1812087.0	1429244.0	841663.0	0.237334	0.529521
     30035.75	0.13296	1802113.0	1421389.0	837038.0	0.237325	0.529520
     30036.27	0.13805	1874351.0	1478180.0	870580.0	0.237451	0.529407
     30036.78	0.13543	1835423.0	1447285.0	852247.0	0.237586	0.529568
     30037.30	0.12283	1652335.0	1303008.0	767700.0	0.237514	0.529032
     30037.82	0.13328	1808355.0	1426341.0	840420.0	0.237305	0.528966
     30038.34	0.13036	1765173.0	1392042.0	820328.0	0.237477	0.528823
     30038.86	0.12227	1658166.0	1308039.0	770757.0	0.237183	0.528911
     30039.38	0.12798	1726222.0	1361633.0	802364.0	0.237250	0.528878
     30039.90	0.12389	1670229.0	1317977.0	776695.0	0.236863	0.528806
     30040.42	0.12233	1658623.0	1308593.0	771296.0	0.237035	0.528636
     30040.94	0.11960	1626743.0	1283340.0	756631.0	0.237114	0.528346
     30041.46	0.12785	1741825.0	1373895.0	810158.0	0.237284	0.528176
     30041.98	0.13564	1842852.0	1453565.0	857036.0	0.237295	0.528295
     30042.50	0.12237	1655353.0	1306097.0	770246.0	0.236971	0.528089
     30043.01	0.12427	1678618.0	1324568.0	781079.0	0.236884	0.528165
     30043.53	0.12206	1657016.0	1307334.0	771131.0	0.237028	0.527887
     30044.05	0.13205	1787894.0	1410509.0	832080.0	0.237088	0.527777
     30044.57	0.11387	1547799.0	1221110.0	720103.0	0.237074	0.528121
     30045.09	0.11423	1552728.0	1225074.0	722896.0	0.237012	0.527491
     30045.61	0.13137	1776829.0	1402187.0	827230.0	0.236797	0.527706
     30046.13	0.11550	1564029.0	1234422.0	728434.0	0.236662	0.527461
     30046.65	0.11412	1548610.0	1222304.0	721304.0	0.236620	0.527432
     30047.17	0.12392	1674620.0	1322023.0	780172.0	0.236423	0.527404
     30047.69	0.12346	1664174.0	1313281.0	775350.0	0.236800	0.526969
     30048.21	0.12333	1666098.0	1315311.0	776273.0	0.236411	0.527324
     30048.73	0.13171	1766197.0	1393900.0	823344.0	0.236723	0.526487
     30049.25	0.12816	1722423.0	1359383.0	802449.0	0.236701	0.527118
